acc_x, acc_y, angular_z, stamp, 
-0.04639725249662412, -0.0010575906668703122, -0.00037861263086048425, 2356983000000, 
-0.04887039069651394, -0.020164889754331953, 0.00017616789037031312, 2356988000000, 
-0.09977791277098974, -0.0262565388699968, -2.4368904098113247e-05, 2356993000000, 
-0.08194532289818292, 0.014897465219612842, -9.9819730381713e-05, 2356998000000, 
-0.05117738092997303, -0.033542490653548133, 0.00013398043429216225, 2357003000000, 
-0.04719359684199233, 0.02154355994216751, -0.0001981174840385808, 2357008000000, 
-0.05935207272932881, -0.004294291914363903, -0.0004564475690213841, 2357013000000, 
-0.06010807088304576, -0.003198588150220445, -0.00023470239282712092, 2357018000000, 
-0.07586196679293497, -0.009577585976361568, -0.00012796865429432183, 2357023000000, 
-0.04584035765027241, 0.02147432217184783, 0.00012509834439397373, 2357028000000, 
-0.06885114185669915, 0.006349959029891858, 0.00019762713797398098, 2357033000000, 
-0.04362296227923187, 0.020961577264581283, 0.00021275928228486852, 2357038000000, 
-0.011725654111975722, 0.014669580207397538, -0.0001852228697115021, 2357043000000, 
-0.03529501377669342, -0.016741066793845714, -6.55555236497175e-05, 2357048000000, 
-0.02199932979217185, -0.010946961544994117, -0.000372301022406779, 2357053000000, 
-0.05526854998759817, -0.01073481235934162, 0.00012447419435530246, 2357058000000, 
-0.04284249842262576, 0.008905411182142197, 0.00015096893779156234, 2357063000000, 
-0.06307572115677375, -0.002036377073218709, -9.485742572353486e-06, 2357068000000, 
-0.03856957409783905, 0.008564823118516297, -0.0002745911717209616, 2357073000000, 
-0.09093849186045605, 0.01758239425377044, -0.00031788666517989074, 2357078000000, 
-0.03889954212671199, -0.012853849347918141, 5.24651646975961e-05, 2357083000000, 
-0.014741491452114945, -0.00998292760517343, 0.00026175782668591845, 2357088000000, 
-0.06601411962745936, 0.006276172041466877, 0.00020639864097378213, 2357093000000, 
-0.062128640862681196, -0.0029811139850070244, -0.0003862883150390625, 2357098000000, 
-0.07798272998908523, 0.0571519900877509, 3.385186298100719e-05, 2357103000000, 
-0.050662723310342626, 0.024087832667563994, 7.327410577718323e-05, 2357108000000, 
-0.04149639186786032, 0.00529105870253597, -0.00018583881054426944, 2357113000000, 
-0.046065281548969106, -0.021973006090905488, 0.00025040010834075224, 2357118000000, 
-0.06402018391821473, 0.008232568890594096, -0.00015955108318912572, 2357123000000, 
-0.054632206415269884, 0.008003874909866607, 0.00021870333139296648, 2357128000000, 
-0.06599036486520732, 0.02838064010702668, 0.00020145628959924053, 2357133000000, 
-0.04017135263721781, 0.016420676786835963, -0.0002246525383087052, 2357138000000, 
-0.06947450716408696, -0.009485824143769788, 7.722548366574344e-05, 2357143000000, 
-0.06274457282875137, 0.025370758350535948, 0.00015093361020431678, 2357148000000, 
-0.05849959708460186, 0.015767158864649623, 2.4345190582683808e-05, 2357153000000, 
-0.05369033785133413, -0.03151038072181577, -7.219273428648797e-05, 2357158000000, 
-0.04417746596515727, -0.0053035298827322705, 0.0001188161440294515, 2357163000000, 
-0.0786507897583985, 0.015135866589085983, -0.00017938735450864464, 2357170000000, 
-0.06296879184099416, 0.026109260635303055, 5.848872422724067e-05, 2357179000000, 
-0.04524897268511317, -0.001538304101492426, -0.0002110775144517531, 2357185000000, 
-0.07566373949688414, -0.01391142341829708, -0.0003494550383316346, 2357190000000, 
-0.07158806022247091, 0.006163685728762034, -0.00013432281870309675, 2357196000000, 
-0.050157936644283946, 0.004389345984342391, 0.00012453723894151122, 2357201000000, 
-0.04470878350798781, -0.004935340473143598, 0.000168263125391683, 2357208000000, 
-0.05888606497151692, -0.0011721816230065075, 0.00024150918004606182, 2357213000000, 
-0.05312920788233009, 0.0015748932725406003, 0.0003423437346335648, 2357218000000, 
-0.05815946358345093, -0.009752095896385721, -0.0001778606400910601, 2357224000000, 
-0.04705058659087968, -0.006951105084919849, -0.00033449049400076, 2357229000000, 
-0.06793447787488534, 0.021409217339140873, 0.00021711861132963842, 2357234000000, 
-0.05168214462233398, 0.028614734119720833, 9.65489934820093e-05, 2357239000000, 
-0.03914443564048066, -0.0065877352682392545, -2.889643208228209e-05, 2357244000000, 
5.587739268355405, -0.027528674155383227, 9.09573540284044e-05, 2357250000000, 
-0.1486523157612748, -0.0014660960042472589, 0.00016907112931782866, 2357255000000, 
-0.12517394422572214, 0.006356770745200011, 0.0003679908188732908, 2357260000000, 
-0.08372386143423177, -0.018794668629682112, -4.414236073695634e-05, 2357265000000, 
-0.024034821393543904, -0.0019041323355165388, 0.00013452468984573285, 2357270000000, 
0.164459658178844, 0.04727592628449161, 6.319250354821006e-05, 2357275000000, 
-0.2830030531350199, 0.005818472900215182, 5.943982224237412e-05, 2357280000000, 
7.026691964248939, -0.010731198738017745, 0.0002637574965673655, 2357285000000, 
-0.18096776621382205, 0.002703079195494347, 5.7488269810674104e-05, 2357290000000, 
-0.10923904265875986, -0.032596918767998084, 0.00026853469514357537, 2357295000000, 
-0.08441517141137464, 0.01737202334900685, 7.814103503384347e-06, 2357300000000, 
-0.060891093475613514, -0.016975674689295908, 0.00023131952020410252, 2357305000000, 
-0.02531896490651612, 0.034000517970378875, -9.71910904745292e-05, 2357310000000, 
-0.05873300421529109, 0.0006943645870189793, 0.00020478887974231298, 2357315000000, 
6.896995220807149, 0.018326964389248815, -0.00010444355383335037, 2357320000000, 
-0.16940601366310662, 0.0015054265554668674, -5.424116461975847e-06, 2357325000000, 
-0.07203683988511425, 0.021520086908713463, -7.143647297897944e-05, 2357331000000, 
-0.07348229568417604, 0.02101017406041194, -0.00019672918445654727, 2357336000000, 
-0.029886402109707923, 0.02550337550912349, -0.00041730238825857, 2357341000000, 
-0.030694157607493736, -0.029797296599445886, 0.0002239885318650243, 2357346000000, 
6.734689908274604, -0.012862453603818068, -5.0849472015297644e-05, 2357351000000, 
0.03155516993944259, -0.023954750342681692, -0.0004060759148910884, 2357356000000, 
-0.1048476019359201, 0.007647497908810337, 6.626555369186623e-05, 2357361000000, 
-0.07385646792054262, -0.022125067405776508, 0.0001340237723145008, 2357366000000, 
-0.05276629093280038, -0.005498757169930181, 0.00023512638462960044, 2357371000000, 
-0.026751504174784495, -0.01050218267827208, -0.0002944490146741414, 2357376000000, 
-0.04067110291453456, 0.0034157813468189318, -4.538878066075415e-05, 2357381000000, 
7.209521066771912, -0.034164371319289094, 0.0015006348002015615, 2357386000000, 
0.7504645290908203, -0.035317435596721965, 0.0029107854001520035, 2357392000000, 
-0.11180856456206505, 0.0010371575837341226, 0.023422514667071355, 2357397000000, 
-0.0767991281099208, 0.007371749402261743, 0.03547587047992362, 2357402000000, 
-0.061105759475988695, -0.02602877133825768, 0.04885833572325995, 2357407000000, 
-0.07432714081703454, 0.03091120570458938, 0.06181828301708933, 2357412000000, 
-0.02586452133062519, 0.020186734661486603, 0.07404690315852132, 2357417000000, 
3.4049626583578103, 0.016604754916617056, 0.10329446145344624, 2357422000000, 
-0.10395852436390098, 0.03789214761422322, 0.1415608497813307, 2357427000000, 
-0.0912059321142375, 0.0544525887207144, 0.17634219815622687, 2357432000000, 
-0.07126236618956619, 0.0443007877514838, 0.23191806417688363, 2357437000000, 
-0.04190811397640103, 0.064407632358266, 0.27664128705984053, 2357442000000, 
-0.05759442754873154, 0.03933371238218426, 0.3185690913308547, 2357447000000, 
2.711629426750003, 0.05225028594353413, 0.3571050983068948, 2357452000000, 
0.5579721563714762, 0.09591489036561662, 0.4061695284334782, 2357457000000, 
-0.08911918442600952, 0.09884192557289434, 0.45700599086349764, 2357462000000, 
-0.05772712774730108, 0.07398667006835677, 0.5064040802026218, 2357467000000, 
-0.04646737910430486, 0.08460314854639203, 0.5420389063907165, 2357472000000, 
-0.053631349339517936, 0.08094553524052858, 0.5871382676944416, 2357477000000, 
-0.039851610345842406, 0.12190144773360989, 0.6139501538541415, 2357483000000, 
0.2008209202911275, 0.1432579852618633, 0.6338132395645777, 2357488000000, 
-0.05611270241407779, 0.12595638918690935, 0.639446716284471, 2357493000000, 
-0.027548256655302993, 0.09032822772610036, 0.6378101388467641, 2357498000000, 
-0.03734050615545871, 0.1267529266114568, 0.6239454695454969, 2357503000000, 
-0.03610252376926863, 0.1400444293363755, 0.6044687943208122, 2357508000000, 
-0.04721507261737968, 0.11115559179652805, 0.5801428329939861, 2357513000000, 
-0.046953318400764305, 0.08919313474844906, 0.5528368677112837, 2357518000000, 
-0.03412562417999977, 0.09984907599617666, 0.5242598155633956, 2357523000000, 
-0.02580658461405726, 0.12816670017817394, 0.49595322111366885, 2357528000000, 
-0.03910150802672715, 0.11240852611290571, 0.47101851671381467, 2357533000000, 
-0.018894363362758362, 0.0899962057607244, 0.4496177016398913, 2357538000000, 
-0.03104322248023097, 0.13945646126480143, 0.43038678706804795, 2357543000000, 
-0.04923757634247672, 0.11631140875951892, 0.42170829749978495, 2357548000000, 
-0.0362676623664116, 0.11027655591563292, 0.4172863568164878, 2357553000000, 
-0.0091350987347418, 0.12384445593231183, 0.41696996071884257, 2357558000000, 
-0.052372230929315144, 0.09029776891334695, 0.4236367500258443, 2357563000000, 
-0.032185281496329196, 0.09808938997863972, 0.43185810957592646, 2357568000000, 
-0.06654834424335346, 0.08496676480121088, 0.4449424664610213, 2357573000000, 
-0.0342778485766829, 0.09290579675014925, 0.4569123159091684, 2357578000000, 
-0.04650367470852591, 0.05788320964805546, 0.4772220976483261, 2357583000000, 
-0.025632949649847733, 0.09068430340720444, 0.49420616977327664, 2357588000000, 
-0.03931164604538051, 0.12299520487009852, 0.5071803423185446, 2357593000000, 
-0.04382134197301275, 0.09430138661419188, 0.5265404246566399, 2357598000000, 
-0.04751819832470426, 0.10560218246884341, 0.5354787159599025, 2357603000000, 
-0.03016325156883557, 0.14534271232343887, 0.5435794940657983, 2357608000000, 
-0.015729922776077886, 0.12449935720939102, 0.5471558855159903, 2357613000000, 
-0.03184185397927636, 0.10401390168455799, 0.5487146968526412, 2357618000000, 
-0.05235098674065304, 0.11836055226507208, 0.5461927759509181, 2357623000000, 
-0.05628406111531131, 0.10132371120911635, 0.5402401563321492, 2357628000000, 
-0.023789221574470203, 0.10748628879769147, 0.534558724190798, 2357633000000, 
0.011930937468989398, 0.11518467830463121, 0.5240268068777559, 2357639000000, 
-0.009241657227126304, 0.10155104557454188, 0.5113964867229873, 2357644000000, 
-0.05496757709707054, 0.10741061067590686, 0.5036716809003445, 2357649000000, 
-0.027380029023704032, 0.11187086621058015, 0.4921603972057233, 2357654000000, 
-0.04622203580036091, 0.12048196364252486, 0.48540529694041823, 2357659000000, 
-0.0302077229831801, 0.10893044683295358, 0.4773314194797785, 2357664000000, 
-0.03297017468070036, 0.10445158102115033, 0.47344398570333834, 2357669000000, 
-0.01794004378473127, 0.10180981467234758, 0.47100985154804875, 2357674000000, 
-0.05442004036362332, 0.08259027808381841, 0.4706379176227275, 2357679000000, 
-0.024354438554887226, 0.10226788774770597, 0.47214192098765856, 2357684000000, 
-0.05063197328381734, 0.12486531229970922, 0.4753295621566117, 2357689000000, 
-0.01178890560715069, 0.10055359984125052, 0.47951550754867217, 2357694000000, 
-0.06798642224429487, 0.07258208850812757, 0.4853758893488916, 2357700000000, 
-0.044826538755001234, 0.12200741588056327, 0.4923011860108204, 2357705000000, 
-0.07071439260537012, 0.09104225564696283, 0.49871383685758025, 2357710000000, 
-0.015426065107445115, 0.10125375676532344, 0.5040919851651426, 2357715000000, 
-0.05065342773487361, 0.07361434174992079, 0.5085073042596132, 2357720000000, 
-0.017727083428735614, 0.11431823190009685, 0.5130511451463013, 2357726000000, 
-0.004388865090880892, 0.10721541174215775, 0.515689070136814, 2357731000000, 
-0.01725153524533276, 0.11088040067088588, 0.517301608015873, 2357736000000, 
-0.062297569569525, 0.09602093965251376, 0.5168479829372009, 2357741000000, 
-0.023109858308605548, 0.1247589970114985, 0.5159799815806362, 2357746000000, 
-0.05437939906304085, 0.10553259031552703, 0.514155645809286, 2357751000000, 
-0.01889405481136266, 0.12159337842413602, 0.5108716404706751, 2357756000000, 
-0.09289178681067098, 0.11539796347416134, 0.507812808309386, 2357761000000, 
-0.015643800309084386, 0.10319287573765684, 0.5037048188056159, 2357767000000, 
-0.045699459105513485, 0.08323679553888515, 0.500052537855816, 2357772000000, 
-0.05473356307858273, 0.10802229954063321, 0.49646279111346875, 2357777000000, 
-0.05804324771167413, 0.10853277375637593, 0.49409131355308505, 2357782000000, 
-0.04756122769178027, 0.13398335332737749, 0.4927410492178456, 2357787000000, 
-0.05239001183632447, 0.06625599669657642, 0.49059348955131843, 2357792000000, 
-0.01725123909001005, 0.10042569774174583, 0.4897322366278816, 2357797000000, 
-0.03768873359217353, 0.07752141536827578, 0.4896961203391001, 2357803000000, 
-0.012066311399170252, 0.11222016857104947, 0.4902356408384536, 2357808000000, 
-0.02563611579560824, 0.0870672730041356, 0.4915354688001598, 2357813000000, 
-0.014490172892608899, 0.10898144938208408, 0.4933565810684144, 2357818000000, 
-0.03321587945794973, 0.115451211720933, 0.4946168258039085, 2357823000000, 
-0.03277470944032379, 0.12747533291535, 0.49614276204592583, 2357828000000, 
-0.06337621729890952, 0.10063090357724926, 0.49908366174946794, 2357833000000, 
-0.018148936659024187, 0.07447897418079517, 0.501164473225644, 2357838000000, 
-0.048517199745301796, 0.11610419679576757, 0.5032262923690023, 2357843000000, 
-0.042142535491733045, 0.10421618121617235, 0.5042843843486826, 2357848000000, 
-0.0555209818453689, 0.09239811156188538, 0.5049262775526869, 2357853000000, 
-0.008350047208162556, 0.15001429167465544, 0.5054826267423007, 2357858000000, 
-0.03486026523869731, 0.1221206280588241, 0.505593566385363, 2357863000000, 
-0.007309664219168281, 0.12172791043870367, 0.5058403202394803, 2357868000000, 
-0.024566101066971477, 0.11387088479907272, 0.5047523861451902, 2357873000000, 
-0.04202585093255075, 0.13562612332426552, 0.5040066102430778, 2357878000000, 
-0.014557054635044298, 0.1351910107320174, 0.5029028888529654, 2357883000000, 
-0.0399030133169694, 0.09939852148492333, 0.5013134648723673, 2357888000000, 
-0.03917109406800946, 0.09716900246665003, 0.4998487718105661, 2357893000000, 
-0.022875991362218687, 0.1261480436421996, 0.4990530844258024, 2357898000000, 
-0.038326057741339944, 0.11000223661300436, 0.497703887631236, 2357903000000, 
-0.04370125851150323, 0.10739674761455033, 0.49724384629498225, 2357908000000, 
-0.07140882203021182, 0.11632522379966206, 0.4965326072002342, 2357913000000, 
-0.02605866539544279, 0.08783247710649567, 0.49611542951571774, 2357918000000, 
-0.03879369945659914, 0.10260801259124769, 0.4965215274965002, 2357924000000, 
-0.02432565486775301, 0.12351843186631419, 0.4960953184580013, 2357930000000, 
-0.01072487937877322, 0.06534980791145606, 0.4969201247177711, 2357935000000, 
-0.04733215562439629, 0.10576798236573393, 0.497385296157691, 2357941000000, 
-0.03456873786261625, 0.09225299684856146, 0.4981974508120605, 2357946000000, 
-0.021490665673102427, 0.09642627769489732, 0.4987334628657234, 2357951000000, 
-0.04356244195387448, 0.11903446399258297, 0.49991272138725507, 2357956000000, 
-0.053132823820769476, 0.09776608132666623, 0.5001736740117776, 2357961000000, 
-0.03303409079532865, 0.09244905751693835, 0.5011056368404405, 2357966000000, 
-0.05155350215815021, 0.11250796198681265, 0.5016145142927494, 2357973000000, 
-0.027956328247527164, 0.08576586978868031, 0.5015245434708434, 2357978000000, 
-0.03499109782747756, 0.13250631475355082, 0.5020482568899356, 2357983000000, 
-0.034876551962746, 0.0967321812585296, 0.5018398073773576, 2357988000000, 
-0.022578560975516727, 0.12096307479647973, 0.5016561760498096, 2357994000000, 
-0.04387492934592613, 0.10110732719306473, 0.5012075019943472, 2357999000000, 
-0.0129554708065681, 0.12020627232469376, 0.5012351551416729, 2358004000000, 
-0.05401890385872435, 0.1137233063321329, 0.5003088947661575, 2358010000000, 
-0.04449449704060422, 0.08168575361302378, 0.5003602875371242, 2358015000000, 
-0.014611985759334783, 0.12906733537010534, 0.4995340062738931, 2358020000000, 
-0.061263788162042414, 0.10531023425684805, 0.4989200038388285, 2358025000000, 
-0.05625244935055647, 0.10502606506389199, 0.4987700883637195, 2358030000000, 
-0.07835242141119694, 0.12062591400389253, 0.49889396046361023, 2358035000000, 
-0.04997328627969923, 0.12307342997813286, 0.49875829301231595, 2358040000000, 
-0.06809552108133825, 0.1521187731263969, 0.49818460832566364, 2358045000000, 
-0.04987373541012942, 0.10418445309776868, 0.49852385744125527, 2358052000000, 
-0.055509310728839696, 0.08609095898167066, 0.4988650543919344, 2358057000000, 
-0.045887369915254876, 0.12907823444343589, 0.49886831778315494, 2358062000000, 
-0.06395338168705027, 0.09006899178974681, 0.49913704645555806, 2358067000000, 
-0.04170247378187252, 0.07868466679122219, 0.4990857692875955, 2358072000000, 
-0.03186042313723829, 0.07912150569325421, 0.4995170326449469, 2358077000000, 
-0.025799006197564915, 0.14434017974670066, 0.5000780363869267, 2358082000000, 
-0.06689867251968618, 0.11105771185408334, 0.5001653882256138, 2358087000000, 
-0.03258827253870844, 0.14106574364424504, 0.5003243406276217, 2358092000000, 
-0.01558512745322059, 0.1164821038159578, 0.5005130704505064, 2358097000000, 
-0.04403180215031506, 0.08319041814317572, 0.5004722859568876, 2358103000000, 
-0.05465416191086865, 0.12014020510151402, 0.5002419529834535, 2358108000000, 
-0.03870080593834297, 0.10862107282512458, 0.5003463068444985, 2358113000000, 
-0.08121783229030413, 0.12068848256753703, 0.5002316980142535, 2358118000000, 
-0.03422828588447566, 0.12340126313892649, 0.5002451503795609, 2358123000000, 
-0.08213361252982787, 0.12229200110100581, 0.5000215169453874, 2358128000000, 
-0.04007457413080533, 0.10451848125829824, 0.5000383554581637, 2358134000000, 
-0.04223341863077998, 0.08701916995870017, 0.49975544870280386, 2358139000000, 
-0.030453308774009414, 0.08320092565984374, 0.49931017806235783, 2358144000000, 
-0.03367731761000506, 0.10800411433771315, 0.4997087090427946, 2358149000000, 
-0.029426544844936935, 0.11034364544526717, 0.4998757077296687, 2358154000000, 
-0.038905033708938996, 0.0896630557719831, 0.4999580588212255, 2358159000000, 
-0.029011943933095276, 0.10074137821606036, 0.4995944854637769, 2358164000000, 
-0.044063876977384106, 0.09996188126958232, 0.4997407506836623, 2358169000000, 
-0.044531063471453844, 0.1318784419445133, 0.5002106003881459, 2358175000000, 
-0.054831913438845324, 0.13233159028760888, 0.4998577977521371, 2358180000000, 
-0.06499570188483433, 0.11139009367007233, 0.500167707968415, 2358185000000, 
-0.056238990284615535, 0.12799802821926265, 0.5001127241893242, 2358191000000, 
-0.05768393529652224, 0.10056676709468991, 0.5005839636251393, 2358196000000, 
0.06607894932051686, 0.11440401163794874, 0.5006803500295075, 2358201000000, 
-0.1380558973392766, 0.10073827804814758, 0.5006629032402611, 2358206000000, 
0.042512669815082574, 0.08699092679617365, 0.5005269244004898, 2358211000000, 
-0.14403602850373795, 0.12762725285504362, 0.5008118361456649, 2358216000000, 
-0.061877333015851126, 0.15862179654280661, 0.5006227471547638, 2358221000000, 
0.0158663037527813, 0.14615289917655305, 0.5003703720799104, 2358226000000, 
-0.14675876528921097, 0.08971348566154962, 0.5000612185870245, 2358231000000, 
0.053212472888715306, 0.107787111509825, 0.5000820697733587, 2358236000000, 
-0.16770454508165827, 0.12089382338621907, 0.5001287630736616, 2358241000000, 
0.022009001550835953, 0.11248169772074713, 0.4998380628915999, 2358246000000, 
-0.06227170812322069, 0.13288673307427049, 0.4995814212500579, 2358251000000, 
-0.113270292656544, 0.13212197850984156, 0.4992258861942557, 2358256000000, 
-0.01638189661620241, 0.11250008808887621, 0.49947949185249235, 2358261000000, 
-0.04031176934671904, 0.0794151727618369, 0.49932357600946065, 2358266000000, 
-0.08694904274964507, 0.12321463964600042, 0.49957219917844214, 2358271000000, 
-0.04659084700759946, 0.13263318915283878, 0.49957474392374934, 2358281000000, 
-0.0701090849000317, 0.12378806954191217, 0.4993597208240067, 2358286000000, 
-0.07783376973310334, 0.10760047725574944, 0.49934236010326716, 2358291000000, 
-0.09477145630699137, 0.1407555727213528, 0.4998013148752589, 2358296000000, 
-0.06877432255819584, 0.13195787529281924, 0.4998240222661346, 2358301000000, 
-0.0740908277050538, 0.1170903613646689, 0.5001575269003243, 2358306000000, 
-0.025592072348247723, 0.11166832541208083, 0.4998035014937229, 2358311000000, 
-0.08905355000073029, 0.11569384072679352, 0.5000613665300454, 2358316000000, 
-0.057657319618597276, 0.13092258963373618, 0.5000792163658527, 2358321000000, 
-0.06893745666783098, 0.10314741205969791, 0.5001279071720097, 2358326000000, 
-0.08066199184865096, 0.1559459202575645, 0.5001014012927438, 2358331000000, 
-0.050757364157393146, 0.110109229080261, 0.5001991649479218, 2358336000000, 
-0.0643103932849463, 0.11864732338231945, 0.4999290826342798, 2358341000000, 
-0.05793691151244056, 0.14084194944305586, 0.5001508410363599, 2358346000000, 
-0.06767339090613958, 0.1376680666405739, 0.49950163896274596, 2358351000000, 
-0.07486590796443462, 0.10804278517492719, 0.49997895208738863, 2358356000000, 
-0.05715976561053032, 0.14642030758775468, 0.4994390953377863, 2358361000000, 
-0.06048619972775676, 0.1156005519120411, 0.5004385483267002, 2358366000000, 
-0.04233784373751487, 0.11282067591190022, 0.4997937174801758, 2358373000000, 
-0.05246079737551771, 0.14095182640703735, 0.5001004120808937, 2358379000000, 
-0.0808523058612744, 0.13134182447282103, 0.49947714969951107, 2358384000000, 
-0.07190501984904503, 0.11936366978747144, 0.500167921475981, 2358389000000, 
-0.07131464096910897, 0.11775137348077278, 0.4998971267494932, 2358394000000, 
-0.06477779883136965, 0.08689902214458818, 0.49968861491540756, 2358399000000, 
-0.14095463468760294, 0.008943492148138135, 0.49984127659840266, 2358404000000, 
-0.0008913243867712528, 0.24112508379086114, 0.5000503990841804, 2358409000000, 
-0.0458051987998542, 0.10785776551797585, 0.5002344147172948, 2358414000000, 
-0.06887017755577894, 0.12808310972526024, 0.5000375354078547, 2358420000000, 
-0.02405903362092131, 0.15379143058383415, 0.5003080176925042, 2358425000000, 
-0.04184472191824207, 0.13286752764508586, 0.49991808143152805, 2358430000000, 
-0.12288842197469985, -0.012583969165996658, 0.5005089811095343, 2358435000000, 
0.017988598320696603, 0.35037365647759716, 0.5004166703239153, 2358440000000, 
-0.07772726640824332, -0.018451504006421655, 0.5003331161429422, 2358446000000, 
-0.0531030419756647, 0.23405165555355312, 0.4999904780878879, 2358451000000, 
-0.0774718187382077, -0.07522562000540077, 0.5003309532466349, 2358456000000, 
-0.021571590360952807, 0.2966555642628552, 0.500724129207674, 2358461000000, 
-0.030722096423710765, 0.12945949716224725, 0.5000835564738466, 2358466000000, 
-0.10496198491381074, -0.03580067058672672, 0.5007048187705658, 2358471000000, 
-0.026746958663586815, 0.2799847251982776, 0.5005026883896866, 2358476000000, 
-0.086943520522461, -0.0326768534220743, 0.5003672279977247, 2358481000000, 
-0.04619695344037575, 0.13470563774616834, 0.5006176222063425, 2358486000000, 
-0.012328132360934267, 0.2564097211435171, 0.5003305641465589, 2358492000000, 
-0.10490776550910484, -0.04064867106511765, 0.5006049348195482, 2358497000000, 
-0.060848452156947314, 0.17577940328582764, 0.5005360353761177, 2358502000000, 
-0.017291103416573875, 0.2785659697997006, 0.5001992748969533, 2358507000000, 
-0.09677840380377505, -0.08207778415167573, 0.5003389831474171, 2358512000000, 
-0.037342498968658384, 0.1326773104180135, 0.5003767987903828, 2358517000000, 
-0.053973744816409805, 0.1278275102782484, 0.500623720582873, 2358522000000, 
-0.06864933616611263, 0.0821262367999499, 0.5005495927308615, 2358527000000, 
-0.05519177463842195, 0.12592235131426238, 0.5003407731388375, 2358532000000, 
-0.042604638713885895, 0.14270448751990414, 0.5004604199877485, 2358537000000, 
-0.035978907144162936, 0.11743104234842755, 0.5004552252053796, 2358542000000, 
-0.03339760747623234, 0.12575507644114375, 0.5001011313027676, 2358547000000, 
-0.050669450180193795, 0.12246624120685329, 0.5003071874792244, 2358552000000, 
-0.0521187752712049, 0.13577103594993942, 0.5005584644383045, 2358557000000, 
-0.06884503543931866, 0.10650557693639118, 0.500185536970829, 2358562000000, 
-0.02218733417738891, 0.13970499314683169, 0.4999277993540597, 2358567000000, 
-0.0363224010046041, 0.1324479460885246, 0.4999249309438489, 2358572000000, 
-0.030462763541264093, 0.1376037099704891, 0.4997304801082151, 2358577000000, 
-0.052476793092172784, 0.11563573443877379, 0.4998998272290362, 2358582000000, 
-0.06324688075996782, 0.10002793266872062, 0.4997226291426239, 2358588000000, 
-0.08010968909960374, 0.10719300831760202, 0.49978494179988825, 2358595000000, 
-0.06035489225904626, 0.12548152673241267, 0.4993130202272493, 2358600000000, 
-0.07131954808433037, 0.1683117523373834, 0.49996930826950775, 2358605000000, 
-0.0479592741462988, 0.13459759808051286, 0.5002583409589819, 2358610000000, 
-0.06474158699536173, 0.10982854810456837, 0.5001418303250111, 2358615000000, 
-0.06031485976263418, 0.15890187442121162, 0.49996411925375145, 2358620000000, 
-0.04261877511757797, 0.16175959196984757, 0.4997307322768806, 2358625000000, 
-0.04128015837763242, 0.10657176931105879, 0.5000825023552046, 2358630000000, 
-0.026291550113402708, 0.1319938422558795, 0.500172949822388, 2358635000000, 
-0.041092365333272485, 0.1553990005512226, 0.500274970205228, 2358641000000, 
-0.03611496521148566, 0.1531660174122872, 0.49997846182575506, 2358647000000, 
-0.03420707884658056, 0.1194132685403596, 0.5005955751725545, 2358652000000, 
-0.0611459863986446, 0.13127991345370865, 0.5005015511922812, 2358657000000, 
-0.04004981060461549, 0.13811280517947072, 0.5001801427154928, 2358663000000, 
-0.06053001675990731, 0.12662422315677185, 0.4999356147624216, 2358668000000, 
-0.05196626873037691, 0.13456345344017911, 0.5004802791576513, 2358673000000, 
-0.06089584219837792, 0.15953233770263248, 0.5001827220922376, 2358678000000, 
-0.05896583123175192, 0.13682618026926466, 0.5003242741776321, 2358683000000, 
-0.054899214005863256, 0.1060871120970617, 0.4998025556774328, 2358689000000, 
-0.03501986547381257, 0.10809287363576915, 0.4998979414175687, 2358694000000, 
-0.06789750174447193, 0.1311047398810761, 0.4999908799165871, 2358699000000, 
-0.07702380490281513, 0.14295272659368438, 0.4998600066413948, 2358704000000, 
-0.04172186222502424, 0.11932555704825831, 0.5003906130209727, 2358709000000, 
-0.05902276989288666, 0.1456745614489416, 0.5001275706896551, 2358714000000, 
-0.05121903935786554, 0.08047889896479837, 0.5001494582917991, 2358722000000, 
-0.03521867250857537, 0.15790137359732856, 0.5001603516932602, 2358727000000, 
-0.06819172146519813, 0.14305880742601818, 0.5003817589748722, 2358733000000, 
-0.057535003896924265, 0.11524590763585635, 0.5004232274154033, 2358738000000, 
-0.04499209943497866, 0.12863949290465393, 0.500107612688188, 2358743000000, 
-0.022977965330488376, 0.09912322309995342, 0.5004438803076653, 2358748000000, 
-0.026986094658022597, 0.08958501164016447, 0.49972241100543535, 2358753000000, 
-0.06653451718324097, 0.15160032289490366, 0.5002155182189825, 2358758000000, 
-0.032579338113947344, 0.13717182834640385, 0.5001515262490986, 2358763000000, 
-0.037903081320495836, 0.10667027687797355, 0.5004722552958826, 2358768000000, 
-0.061577042991273784, 0.13229536049437968, 0.5000974243294317, 2358773000000, 
-0.032437721078990615, 0.12382628062208804, 0.5004942339102599, 2358780000000, 
-0.05368565685963835, 0.1197534614998524, 0.50033301843223, 2358785000000, 
-0.022997224377768587, 0.1302612773806003, 0.5002307772855926, 2358791000000, 
-0.04118364260237484, 0.10821672644759053, 0.5000606296513198, 2358796000000, 
-0.03157268838598667, 0.1323396482400164, 0.5000681070213653, 2358801000000, 
-0.036881315900670335, 0.13418405993285568, 0.49996484961603077, 2358806000000, 
-0.04997451813247299, 0.1302577090915878, 0.49988276051638214, 2358811000000, 
-0.06401098014677185, 0.13952191681896708, 0.5000861607507961, 2358816000000, 
-0.04967032244898832, 0.14320725398686507, 0.4997952284998937, 2358821000000, 
-0.05345601437531356, 0.13778949678039448, 0.4996242417111352, 2358826000000, 
-0.07151058904563673, 0.14220799495053302, 0.5000816202493923, 2358831000000, 
-0.037025627979917305, 0.13633332012447327, 0.49991406721213966, 2358836000000, 
-0.0375060488848112, 0.10361385734289755, 0.5001062885124536, 2358841000000, 
-0.05277699392621287, 0.11836717194960343, 0.5000157094038148, 2358846000000, 
-0.016927644897740568, 0.14374805230921353, 0.49991443409305136, 2358851000000, 
-0.07059142502192771, 0.16130957100352272, 0.5001831039329409, 2358856000000, 
-0.07020605316324886, 0.11848087599596407, 0.5000439180430407, 2358861000000, 
0.0022949981653624246, 0.16093529830214737, 0.5005097435247744, 2358866000000, 
-0.06088066219787204, 0.14070762630392453, 0.49999066288889843, 2358871000000, 
-0.024526850517679725, 0.13214473181149747, 0.4999652406723461, 2358876000000, 
-0.011076356381198367, 0.14195998036393287, 0.5001361747503832, 2358881000000, 
-0.045409755264515475, 0.1366816171642271, 0.500085230841289, 2358886000000, 
-0.05003944921236266, 0.13244729952203174, 0.5000362576711657, 2358891000000, 
-0.032105170413147456, 0.10625614734228028, 0.5001851170992183, 2358896000000, 
-0.028245320923656073, 0.12746898564160425, 0.49992613422640697, 2358901000000, 
-0.03004938499432315, 0.14730006521797395, 0.49982247330393764, 2358906000000, 
-0.06462835407210035, 0.1622421230276247, 0.5003406911548887, 2358911000000, 
-0.0553516077410175, 0.12060800416973515, 0.5000917723386115, 2358916000000, 
-0.053491753947218376, 0.16513121897401423, 0.5002624362317705, 2358921000000, 
-0.0520659452556278, 0.16221498952199281, 0.5001395139750997, 2358926000000, 
-0.05934472498627121, 0.12850606222821287, 0.5000267812361795, 2358931000000, 
-0.0744774440085608, 0.1370735190292519, 0.4997084490254743, 2358936000000, 
-0.07419635646105241, 0.14655095093573725, 0.5001856752232191, 2358942000000, 
-0.0422687133792425, 0.140508238293597, 0.5003926037400178, 2358947000000, 
-0.027526575241229652, 0.1498658970889515, 0.4998759376078261, 2358952000000, 
-0.03578361936506634, 0.12856271206499242, 0.49960896440296815, 2358957000000, 
-0.07001351954532017, 0.12541472377540966, 0.49991027396016813, 2358962000000, 
-0.002118712864383948, 0.155989114032587, 0.5002723980427799, 2358967000000, 
-0.0740929738571634, 0.14186060746064807, 0.5001875308751143, 2358972000000, 
-0.07350258606268087, 0.136041579015307, 0.500318407935806, 2358977000000, 
-0.0583144319618, 0.1528682592725965, 0.5001542182885703, 2358982000000, 
-0.046871722044428195, 0.15023835409636133, 0.49993202202523684, 2358988000000, 
-0.0741126256447355, 0.15138825930165647, 0.500052361142577, 2358993000000, 
-0.07932696303982037, 0.12523544573801956, 0.49988348368240454, 2358998000000, 
0.05528939501097098, 0.25461525346491926, 0.5000985152123012, 2359003000000, 
-0.1450439986132936, 0.018471853982775982, 0.4999178131073045, 2359008000000, 
-0.0629510854158077, 0.1363874568613602, 0.49999729979450214, 2359013000000, 
-0.025572680894694947, 0.14379472675610086, 0.4995141587900491, 2359019000000, 
-0.03426282552820498, 0.13202426876379664, 0.4997715492000942, 2359027000000, 
0.031022217154010663, 0.27805059174606894, 0.4994485910842985, 2359033000000, 
-0.1474142908532958, -0.01747527800392097, 0.49938670354492937, 2359038000000, 
-0.041345206507613766, 0.15427630102996734, 0.4994009784906321, 2359048000000, 
-0.08232943957034292, 0.13800340981540385, 0.49946606487505224, 2359053000000, 
0.023552407379499152, 0.24957761491362102, 0.49933492211883157, 2359059000000, 
-0.14979512047480162, -0.024533347092447977, 0.4994044897994363, 2359064000000, 
0.011055121377051055, 0.292008002581834, 0.5001695588934713, 2359069000000, 
-0.0392765971439342, 0.19715235448030083, 0.50010884702707, 2359074000000, 
-0.1317119600162782, 0.026225959076676582, 0.4999413207705936, 2359079000000, 
0.009920843089247896, 0.28396162683817744, 0.4999596780113192, 2359085000000, 
-0.11700397119077699, 0.030417068784850163, 0.4999042832023242, 2359092000000, 
-0.09630597946787467, 0.12144183148424129, 0.5002223857785479, 2359097000000, 
0.008869356624224186, 0.30299628748363333, 0.499389720811573, 2359102000000, 
-0.12935660186761055, -0.037390627961460234, 0.5001727112137612, 2359107000000, 
0.04726972734719513, 0.4453751886055126, 0.49988453285690326, 2359112000000, 
-0.028989532819891327, 0.19243433757129513, 0.49987601376020896, 2359117000000, 
-0.1476704350536875, -0.012286436352730875, 0.5006206860769147, 2359122000000, 
0.04089582519506774, 0.36397588630425926, 0.499613935129909, 2359127000000, 
-0.06352718074915324, 0.13201558817310458, 0.4999340150875521, 2359132000000, 
-0.09634827920404772, 0.13786787106349999, 0.5003780253367496, 2359137000000, 
-0.03306212571360077, 0.175009231828444, 0.4998800262759525, 2359142000000, 
-0.05814352199139484, 0.15233709464448336, 0.4995770677927488, 2359147000000, 
-0.07206261754953053, 0.1679028674390753, 0.5001645000980589, 2359152000000, 
-0.05862013029537588, 0.17233080219304686, 0.4997918898035261, 2359157000000, 
-0.13534584653674334, -0.015453347136757908, 0.4997204262464156, 2359162000000, 
0.01488142163326443, 0.3189237393306942, 0.5004014916361229, 2359168000000, 
-0.12204213093773295, 0.2079813419426126, 0.5011752792342358, 2359173000000, 
-0.05732069723582892, -0.0745304844137424, 0.5021985490088565, 2359178000000, 
0.011146368832257775, 0.345874259681706, 0.5038397547565757, 2359183000000, 
-0.11378538353203939, 0.1791751884240903, 0.504915467381253, 2359189000000, 
-0.05303979896971662, -0.06318639165155311, 0.506761866281038, 2359194000000, 
-0.05507488050318242, 0.3971475526099811, 0.5087134636658592, 2359200000000, 
-0.05464107789293045, 0.15565967402797448, 0.5103267579991713, 2359206000000, 
-0.13956355096935344, -0.08131866321464937, 0.5119344560345873, 2359211000000, 
-0.08841261242351997, 0.36890533152113886, 0.5136506478644115, 2359216000000, 
0.04016082209565113, 0.13789017706219367, 0.5145940604415974, 2359221000000, 
-0.17828527538409727, 0.009012530561071588, 0.5165228372883576, 2359226000000, 
-0.025437648772695033, 0.3698610666011551, 0.5170604421291018, 2359231000000, 
-0.03019486710414984, -0.05330793486098204, 0.5176897206220361, 2359236000000, 
-0.1366691218964378, 0.2248993718450991, 0.5187216040500475, 2359241000000, 
0.011088087643038935, 0.33393021544129015, 0.5185517147601292, 2359246000000, 
-0.06308903112448605, -0.0485102373837275, 0.518652830633126, 2359251000000, 
-0.12192030159595339, 0.2256718681172157, 0.5182123466464889, 2359256000000, 
-0.022937941327979057, 0.2976773855632973, 0.5177074272593604, 2359261000000, 
-0.05637636760437915, -0.06748230979454067, 0.5167302947573139, 2359266000000, 
-0.11613971020221046, 0.2425266404800704, 0.5157541882679103, 2359272000000, 
0.008123860515251867, 0.21594663877331077, 0.515530475753793, 2359277000000, 
-0.13357329952776292, -0.0011096800461467913, 0.5149151745483438, 2359282000000, 
-0.05911283230257724, 0.2373847714302124, 0.5145555193341074, 2359287000000, 
-0.017720254437779782, 0.26406865045445915, 0.5143772358876321, 2359292000000, 
-0.09998746657014385, -0.01923459192821897, 0.5132633952752151, 2359297000000, 
-0.10070413181890915, 0.23997903927188574, 0.5134573927432524, 2359302000000, 
0.02056845611774501, 0.23518489054097677, 0.5127971025508894, 2359307000000, 
-0.11677499365437366, 0.013465362554846948, 0.5135093647102036, 2359312000000, 
-0.02970639030480701, 0.30920035060095086, 0.5133195942318148, 2359317000000, 
-0.06076188462461922, 0.059672729975590214, 0.513500510844603, 2359327000000, 
-0.08061454820521853, 0.20883748632386398, 0.5144268389217466, 2359332000000, 
-0.01305552396964519, 0.23699771070829198, 0.5149280850754344, 2359337000000, 
-0.04878964451310311, -0.1260404936108823, 0.5146869959955811, 2359342000000, 
-0.103365450976623, 0.21205073643911074, 0.5157042924458891, 2359347000000, 
0.024689328424072454, 0.2313304759376124, 0.5165236437473858, 2359352000000, 
0.005325879447578546, 0.0002607448931709645, 0.516456114371739, 2359357000000, 
-0.14974905178323655, 0.21828772745710923, 0.5165264880411171, 2359362000000, 
-0.03912775927316083, 0.2263324841218194, 0.5167754107492054, 2359367000000, 
-0.021748733093900047, -0.016914287204950397, 0.5169393963558521, 2359373000000, 
-0.08947421379443027, 0.20512891407083922, 0.5167990863236002, 2359379000000, 
-0.08860402038411423, 0.1625170760139422, 0.5167503024415456, 2359384000000, 
-0.026928229155520057, 0.2973426678087254, 0.516718821190678, 2359389000000, 
-0.03558374858264031, -0.0011436467586299105, 0.5168430201211485, 2359394000000, 
-0.08090334714138082, 0.1910762979055311, 0.5166755673970597, 2359399000000, 
-0.029340569505903108, 0.15436462974325205, 0.5174634569932688, 2359404000000, 
0.0035143624820270364, 0.1422902698602186, 0.5176265494133684, 2359409000000, 
-0.09448215108755498, 0.13503059741993584, 0.5173759544439408, 2359414000000, 
-0.04744514627288179, 0.18604963910266026, 0.517858487572397, 2359419000000, 
-0.05383792178904365, 0.17473736645225263, 0.5185876001293475, 2359424000000, 
-0.06025245280409911, 0.15299714681811427, 0.5186304544041612, 2359431000000, 
-0.02031316441108672, 0.1457797314935675, 0.5196250277346192, 2359436000000, 
-0.049611152838271375, 0.12791076657191383, 0.5192346257252927, 2359441000000, 
-0.08654803906979325, 0.19499861817547784, 0.5188440402665547, 2359446000000, 
-0.019623092359624783, 0.18207411184373778, 0.5182878760192027, 2359451000000, 
-0.07661602103297167, 0.1315969769193314, 0.518729912949824, 2359456000000, 
-0.08874902177985702, 0.13844206246038024, 0.518730127571434, 2359461000000, 
-0.07186910910807102, 0.09428360921657698, 0.5194590317657888, 2359466000000, 
-0.08974787722111624, 0.14579585660796499, 0.5202148056839005, 2359471000000, 
-0.08097341516461075, 0.15169878289153924, 0.5205893025618191, 2359476000000, 
-0.07266987614672166, 0.13618654512084702, 0.5215389660274962, 2359481000000, 
-0.07608155980193423, 0.15078451868420434, 0.522711247432587, 2359487000000, 
-0.035306350110727386, 0.14002407824861837, 0.5232173284896418, 2359492000000, 
-0.04857300259564123, 0.15504544966987982, 0.5235810163614003, 2359498000000, 
-0.038156216783445024, 0.142694950264293, 0.5244243798731951, 2359503000000, 
-0.05143921960639738, 0.12921299866914765, 0.524834013243274, 2359508000000, 
-0.0410989022596745, 0.14760723905825085, 0.5248384702519029, 2359513000000, 
-0.06607400138928009, 0.14141194508590912, 0.5249166417123858, 2359518000000, 
-0.04115435944244586, 0.16341156826979605, 0.5247602399401936, 2359523000000, 
-0.0664354856074229, 0.17210884701232934, 0.5245440765292241, 2359528000000, 
0.13084199735083304, 0.128981378828759, 0.523298706719607, 2359533000000, 
0.021054888098294408, 0.14531245715212934, 0.5204709117128161, 2359538000000, 
-0.050255835983266495, 0.16285563361762467, 0.5167933956900519, 2359543000000, 
-0.05944272570730996, 0.15209749795853333, 0.5121393148931039, 2359548000000, 
-0.049590977501391895, 0.16295503276941958, 0.5080536527726929, 2359553000000, 
-0.05169890213769936, 0.09976370345927651, 0.5016186296782525, 2359558000000, 
-0.06269584393048525, 0.15977755506559213, 0.49730055834313536, 2359563000000, 
-0.03361962200256364, 0.1266572482103103, 0.4927763726397266, 2359568000000, 
-0.07137756973891461, 0.16215737963338278, 0.4895719389739031, 2359573000000, 
-0.03995478760836707, 0.18627721902223454, 0.4852444290247357, 2359584000000, 
-0.0880510382088003, 0.056661833258351474, 0.4853332693905085, 2359589000000, 
-0.053610562749982084, 0.2491460698353417, 0.48625212403703794, 2359594000000, 
-0.05987765195719001, 0.1457208273267862, 0.4862831271662729, 2359599000000, 
-0.10483796947246848, 0.08265452704846948, 0.48984532142589204, 2359604000000, 
0.005030367472270781, 0.2897681017726368, 0.49257818836795053, 2359609000000, 
-0.11024756613076792, -0.03925705830153708, 0.49565929647241097, 2359614000000, 
-0.06255707140906369, 0.15616527034154917, 0.49873114894398424, 2359619000000, 
-0.014507626514424485, 0.2519391058707994, 0.5015019506590154, 2359624000000, 
-0.11254995907188714, 0.018141860437226983, 0.5039701239802755, 2359629000000, 
-0.008822307640506812, 0.2807846746965946, 0.5060481079640996, 2359634000000, 
-0.13401440028891448, 0.05444626419084041, 0.5077594175542474, 2359639000000, 
-0.03493216994152656, 0.2761330240495209, 0.5087384663413518, 2359644000000, 
-0.03157339752376617, 0.16341549304106326, 0.5082974975646002, 2359650000000, 
-0.10029316086101482, 0.005684890023849622, 0.5081326441012539, 2359655000000, 
-0.018633817827129938, 0.2817803290620177, 0.5074784692574285, 2359660000000, 
-0.1318250512825948, -0.007988311183158774, 0.5059940854724059, 2359665000000, 
-0.06265320203357091, 0.13986066001284664, 0.5048643397837448, 2359670000000, 
-0.03554010193030489, 0.25936184844562116, 0.5024357444012968, 2359675000000, 
-0.1183460459718781, 0.005044962875808559, 0.5002149506233132, 2359680000000, 
-0.02174239821871877, 0.28133980742621406, 0.4993752924539448, 2359685000000, 
-0.040492871000653394, 0.13889681240485852, 0.4975665600922899, 2359690000000, 
-0.05801711873318296, 0.1365511282804213, 0.49728337668860334, 2359695000000, 
-0.06320575893420606, 0.1685606020121999, 0.495538423154791, 2359700000000, 
-0.08780300230924591, 0.020206986349273332, 0.4947957144373061, 2359705000000, 
-0.10926557725186503, 0.1198812076604384, 0.49484403859938364, 2359710000000, 
-0.039622382965343705, 0.23286795553914957, 0.49466757932171423, 2359715000000, 
-0.07237749048593367, 0.05819156660551184, 0.4953807514549146, 2359720000000, 
-0.056498163313797194, 0.1420660464111713, 0.49596885583503725, 2359725000000, 
-0.02622638322257448, 0.2203032859753224, 0.49645033055336496, 2359730000000, 
-0.10705738603885921, 0.055433129417039116, 0.4983017687055503, 2359735000000, 
0.000536938768936443, 0.20782391284906, 0.4992612892605704, 2359741000000, 
-0.0953679892592223, 0.03526434077184782, 0.5005308954936749, 2359746000000, 
-0.019224103154728216, 0.25867952055222726, 0.5012572322932951, 2359752000000, 
-0.045004100660197256, 0.11509472580472917, 0.5018154753771504, 2359758000000, 
-0.0641356884768746, 0.13816992623742302, 0.5027468402057691, 2359763000000, 
-0.049798488442566784, 0.1603221173912559, 0.5032058977118035, 2359768000000, 
-0.11433173617203557, 0.0036013205720965454, 0.5032125212238887, 2359773000000, 
-0.016379355644220456, 0.26400171039797493, 0.5028871690209626, 2359778000000, 
-0.11705984973110606, 0.025265917376022125, 0.5026379629168316, 2359783000000, 
-0.02776549546341615, 0.26008811805206683, 0.5022441768603915, 2359788000000, 
-0.03892903664859817, 0.15113167498901944, 0.5016104823004186, 2359794000000, 
-0.09829635215339853, 0.1390549562598169, 0.5008478942429607, 2359800000000, 
-0.05384125374796084, 0.12233221209304349, 0.49987396174728577, 2359805000000, 
-0.05758495011419046, 0.055186123286343494, 0.49978720268676047, 2359812000000, 
-0.021553598318844104, 0.26759954376009903, 0.49911750944399774, 2359817000000, 
-0.07686506609054056, 0.025386916873018618, 0.498531278020433, 2359822000000, 
-0.02917414118700875, 0.21240294845651278, 0.49836527290672367, 2359827000000, 
-0.08657500857533279, 0.06883265268672142, 0.49807978100390166, 2359832000000, 
-0.0624646933903336, 0.1317289927134034, 0.49878458366445866, 2359839000000, 
-0.005516338798439983, 0.25290690152268924, 0.49818782992841093, 2359844000000, 
-0.1307040768488209, -0.023795823048183395, 0.49906188920660327, 2359849000000, 
-0.05926599084471698, 0.22542256378806047, 0.49937769897266665, 2359854000000, 
-0.05303276226178824, 0.051080251694239624, 0.4993069181916971, 2359859000000, 
-0.061359220010321236, 0.1495384189852739, 0.50027116502228, 2359864000000, 
-0.054002441520126704, 0.2705682602211315, 0.5005402297020716, 2359869000000, 
-0.06578597989219404, 0.02061852224344045, 0.5004788337890003, 2359874000000, 
-0.047046921679665954, 0.15608764485456836, 0.5006802687899764, 2359879000000, 
-0.031978828288131644, 0.24140083424877584, 0.50106522342365, 2359884000000, 
-0.060808518524383334, 0.022130325446813794, 0.5008207699430206, 2359889000000, 
-0.0627809505289936, 0.16190702325262912, 0.5013773033331348, 2359895000000, 
0.014903140548453757, 0.2709079858739196, 0.5014183893032966, 2359900000000, 
-0.12321198312032458, -0.0421838746243233, 0.5009082676835254, 2359905000000, 
-0.035081941138738984, 0.15666212458351061, 0.5014179251701439, 2359910000000, 
-0.047645444221887503, 0.2081539418776085, 0.501003740850372, 2359915000000, 
-0.061720198379092525, 0.051012777825767255, 0.5003954862103245, 2359920000000, 
-0.07350670524778907, 0.14765767594720647, 0.5002734978080765, 2359925000000, 
-0.031952008004848584, 0.25029991284810926, 0.49975018308303354, 2359930000000, 
-0.04633867174449211, 0.04485247799153127, 0.4999025981098907, 2359935000000, 
-0.0824585510123162, 0.16795387598528264, 0.4995444641850659, 2359940000000, 
-0.06095938203161129, 0.1479506487810055, 0.49972480466501684, 2359945000000, 
-0.058838594055479865, 0.14516674880615005, 0.4993974013212861, 2359950000000, 
-0.05539314267920824, 0.13938166111201325, 0.49955486130299814, 2359955000000, 
-0.0709515839677091, 0.1371805604758213, 0.4993096268694443, 2359960000000, 
-0.043095375544087725, 0.23445491159450532, 0.49961987347220804, 2359965000000, 
-0.10619697436078716, 0.031530536720908456, 0.49942361040385186, 2359970000000, 
-0.05569065947860524, 0.12890415939979766, 0.4998931089528508, 2359975000000, 
-0.06347466602265628, 0.18328576234548136, 0.500449290385022, 2359980000000, 
-0.05476109972659103, 0.14096616801421483, 0.5004181076375152, 2359985000000, 
-0.050707163736129386, 0.14238993088731963, 0.4999001056029599, 2359990000000, 
-0.0652489154297927, 0.11683278518771151, 0.500003384778789, 2359995000000, 
-0.0434661411870457, 0.10714062002435908, 0.5001727449575935, 2360000000000, 
-0.07514039396364343, 0.13211374237220264, 0.5001045385287052, 2360005000000, 
-0.03481318245511155, 0.12714405999581738, 0.5006158930960146, 2360010000000, 
-0.03398836525069862, 0.11206284134377581, 0.5005165256010036, 2360015000000, 
-0.026966665086386777, 0.14199888230580116, 0.5008743846160918, 2360020000000, 
-0.03119171260094572, 0.12412748674731576, 0.5002890263214035, 2360027000000, 
-0.007581328888009775, 0.24413621883775322, 0.5006756294867118, 2360032000000, 
-0.07107242518754121, 0.012168551138358566, 0.4999652175125681, 2360037000000, 
-0.037019981388046685, 0.13129033238012322, 0.5004851203467711, 2360042000000, 
-0.0486874737226346, 0.14428452335344233, 0.5001919417408617, 2360047000000, 
-0.03270544714261691, 0.27987251858088236, 0.49989395015060806, 2360053000000, 
-0.10043127731824383, 0.0429187297848788, 0.499777308118031, 2360058000000, 
-0.051142839075747494, 0.14132053211833595, 0.5000035481250241, 2360063000000, 
-0.06430407201666308, 0.15695107390321808, 0.50011495844349, 2360068000000, 
0.0032846814667195495, 0.23897279451533437, 0.500069878382054, 2360073000000, 
-0.09085923149517144, 0.026126107902773574, 0.49976113494553404, 2360078000000, 
-0.06308261547386501, 0.16044975946472995, 0.49974254558541215, 2360083000000, 
-0.05099048195216854, 0.13648104893606594, 0.4999847518884934, 2360088000000, 
-0.012404751355821579, 0.22285641164254574, 0.4999241783668951, 2360093000000, 
-0.08633238415653813, 0.023292931515091927, 0.500147388298311, 2360098000000, 
-0.024894542969428113, 0.14145857380553797, 0.5000236771978777, 2360103000000, 
-0.0692792950603501, 0.1492592304023423, 0.49994499767027567, 2360108000000, 
-0.06986560071471865, 0.15359064699697053, 0.5002516943771712, 2360113000000, 
-0.0759862270576124, 0.15764632656890065, 0.5001322986706002, 2360118000000, 
-0.06975022027517797, 0.1505376562897538, 0.5003348448292763, 2360124000000, 
-0.03236806883709091, 0.12020552698577507, 0.5004316820771495, 2360129000000, 
-0.04253877272918046, 0.13788665927294014, 0.5000642227521237, 2360134000000, 
-0.048252714196424115, 0.12780524250965683, 0.4998145376113304, 2360144000000, 
-0.04381735238517519, 0.2151134847542716, 0.5005155384423698, 2360149000000, 
-0.06394326635765325, 0.022653215855059763, 0.5003259275992925, 2360154000000, 
-0.05112318665612965, 0.16538843428129368, 0.5003141030314835, 2360159000000, 
-0.053378565274444185, 0.1255277376435587, 0.4996986824523895, 2360165000000, 
-0.03840475000119421, 0.13980549643039225, 0.5001616880136636, 2360170000000, 
-0.07819409826901753, 0.14180736660040208, 0.5002936614944542, 2360175000000, 
-0.06472415137009385, 0.1167354987173781, 0.49993909732892733, 2360180000000, 
-0.05077830517648127, 0.14440756464742116, 0.5007055976753608, 2360185000000, 
-0.015208030284525394, 0.254364526073304, 0.49983540465025805, 2360190000000, 
-0.058605687096713474, 0.05465037680261692, 0.5001498616216258, 2360195000000, 
-0.028749440847609695, 0.2726358754445562, 0.4997046489799904, 2360202000000, 
-0.08073047638558548, 0.00867728953951071, 0.4997502338722615, 2360207000000, 
-0.06297919392647396, 0.17443580857267776, 0.5006055893217249, 2360212000000, 
-0.04101956156777298, 0.2440776404281041, 0.5000235578822098, 2360217000000, 
-0.07033779723108181, 0.011611859361313433, 0.49996368053116264, 2360222000000, 
-0.07089212963194814, 0.1542249591696092, 0.5002763443655843, 2360227000000, 
-0.036421320519520385, 0.27229934820328044, 0.49976239527175886, 2360232000000, 
-0.07563233581709174, 0.038409733419465394, 0.4999347821462384, 2360237000000, 
-0.07508851849114628, 0.13723107951510533, 0.5000657668655284, 2360242000000, 
-0.028184958100436246, 0.24090418591858334, 0.49983064316793624, 2360247000000, 
-0.06155850780097388, 0.007631018134748162, 0.5003262062755819, 2360252000000, 
-0.05746638416878658, 0.25508332143509893, 0.5000683167964602, 2360257000000, 
-0.03736201460575454, 0.15887901573957672, 0.5000019498638674, 2360262000000, 
-0.10278178982376177, -0.021441932969194565, 0.500073435548538, 2360267000000, 
-0.028724619392645735, 0.2764372545061475, 0.5002756373688413, 2360272000000, 
-0.06834476954116109, 0.03297240830004309, 0.5000115541612136, 2360277000000, 
-0.0773585444561113, 0.17920766658646756, 0.5004300658928061, 2360282000000, 
-0.07065702914717154, 0.25834588435844125, 0.5001351498379927, 2360287000000, 
-0.08735312784725985, -0.07932535478444314, 0.49989920233347895, 2360292000000, 
-0.0657976014306059, 0.2430712704552723, 0.49975391940081937, 2360297000000, 
-0.08114702227005494, -0.031175011378763988, 0.5001745347363099, 2360302000000, 
-0.03586662673160204, 0.23624605012651614, 0.5001920846708915, 2360307000000, 
-0.024455902911327806, 0.1476236888920214, 0.49964105492098326, 2360312000000, 
-0.05886296354248895, 0.013605582579591763, 0.5003609542972238, 2360317000000, 
-0.049059486554933925, 0.2968196765605217, 0.5001266829388251, 2360322000000, 
-0.07288068447544878, 0.0029866145469156806, 0.4998077550243273, 2360327000000, 
-0.03800949062090616, 0.29217135019915164, 0.500072776052623, 2360332000000, 
-0.09724232121496786, 0.0220661264492023, 0.49969050816983246, 2360337000000, 
-0.07474703721460232, 0.1408391634501356, 0.5003972090277615, 2360342000000, 
-0.009455141987076317, 0.2569129982948316, 0.5001973249884158, 2360347000000, 
-0.07106783930770307, -0.024310423252003728, 0.49976051389912746, 2360352000000, 
-0.0701753168598585, 0.27522895857351515, 0.5002128477949325, 2360357000000, 
-0.02882847557612093, 0.17649426217437053, 0.49986063712723905, 2360362000000, 
-0.06172431074723449, 0.0028676253343736108, 0.5002930624983731, 2360367000000, 
-0.045070465614638316, 0.29702624516229925, 0.5004163976699528, 2360372000000, 
-0.03051163730234928, 0.010386898122385666, 0.4995580241563493, 2360378000000, 
-0.0426720558085095, 0.14242865650932998, 0.5002368597407887, 2360385000000, 
-0.07900224901527703, 0.12655836758726902, 0.4999003858978257, 2360390000000, 
-0.04323618553762564, 0.25100264761812574, 0.5002580684436334, 2360396000000, 
-0.08414449195180758, -0.017400961945716834, 0.4999268129985094, 2360401000000, 
-0.06492480334014165, 0.1553268067795604, 0.5005631346061894, 2360407000000, 
-0.054348179117623505, 0.28415322185617964, 0.49992734823990004, 2360412000000, 
-0.06614488798297295, -0.0018931268103768856, 0.500026485327606, 2360417000000, 
-0.06592975786064527, 0.1575757566258316, 0.5005128965091695, 2360422000000, 
-0.02333162955705572, 0.2646258740036279, 0.499959415070456, 2360427000000, 
-0.06285927942816896, 0.011016637455201771, 0.4998140548869106, 2360432000000, 
-0.04280536253294592, 0.15508041757451158, 0.5003805712290792, 2360437000000, 
-0.03637595299397519, 0.25606865475307017, 0.49983405278175463, 2360442000000, 
-0.04788618890145742, 0.021266144880901842, 0.5004444114690445, 2360447000000, 
-0.04834955210578089, 0.1725031033313614, 0.4999908755664632, 2360452000000, 
-0.07656542165120826, 0.12207133038189301, 0.5001656232550469, 2360457000000, 
-0.05535294411784105, 0.11627809273584337, 0.5001956003869249, 2360462000000, 
-0.036451274036928216, 0.23626639883867526, 0.5004155898702672, 2360467000000, 
-0.067904824933792, 0.026483966422555225, 0.5005759636143762, 2360472000000, 
-0.026581666773200403, 0.17036731698364568, 0.5002892992194775, 2360477000000, 
-0.03444765066284705, 0.24646105021562748, 0.50022914059683, 2360482000000, 
-0.03421164912674195, 0.007010780821960438, 0.4999086254595879, 2360487000000, 
-0.02910473299085484, 0.1557740231171172, 0.5005080015111478, 2360492000000, 
-0.055776610436983336, 0.14758213070387102, 0.5003676667607356, 2360497000000, 
-0.07678820688443591, 0.30312649562422944, 0.4997332598603543, 2360502000000, 
-0.03881751369722398, 0.022536516391784576, 0.5000263785725737, 2360507000000, 
-0.06997098530182011, 0.1482501219733244, 0.500445556383016, 2360513000000, 
-0.005747534475199295, 0.2830117534924725, 0.4998448657770724, 2360518000000, 
-0.05818998784344882, 0.024254581682238197, 0.5000939047249604, 2360523000000, 
-0.04713777051553299, 0.14370048671072536, 0.5005544630751212, 2360528000000, 
-0.06939841455165162, 0.2513556817560066, 0.5000339058815968, 2360533000000, 
-0.06044687568187955, -0.009578105969528017, 0.49978632265177947, 2360538000000, 
-0.03547427599391037, 0.16317205530505896, 0.50028684421369, 2360543000000, 
-0.057256994466661985, 0.14872819439916296, 0.5003594249634351, 2360548000000, 
-0.04562911675476457, 0.1034785620214665, 0.500063704305843, 2360553000000, 
-0.046457131819055024, 0.1517889331629048, 0.4998748436145736, 2360558000000, 
-0.06995739125375286, 0.21805276170109536, 0.49978114792226486, 2360568000000, 
-0.08276375858908769, 0.01573443225441143, 0.5000706691485532, 2360573000000, 
-0.04785920917873642, 0.15975981524915348, 0.5003793888384348, 2360578000000, 
-0.059675248131433975, 0.15409469626001895, 0.5002237494385495, 2360583000000, 
-0.036995281226691955, 0.12922061001102272, 0.5001239091284715, 2360588000000, 
-0.04246964585275233, 0.1598334214407441, 0.49999551121770713, 2360593000000, 
-0.08952922105909683, 0.12779247066469537, 0.5002746068067441, 2360598000000, 
-0.047874401351809065, 0.25971996989783885, 0.49992150865049284, 2360603000000, 
-0.059536825784619656, -0.032336165450568624, 0.5001112402816517, 2360608000000, 
-0.03756537938489592, 0.12460223087787607, 0.5003915140368194, 2360613000000, 
-0.04864257012761106, 0.15813635423313516, 0.5004954255483463, 2360618000000, 
-0.045454782344029145, 0.11442760955203349, 0.5001382336052349, 2360623000000, 
-0.049690247962904, 0.19104958464460886, 0.500283025960802, 2360628000000, 
-0.054315242989435145, 0.15012042068840625, 0.5008687993436187, 2360633000000, 
-0.08811977767769431, 0.09840986726139742, 0.5004569426691282, 2360638000000, 
-0.11452872427906413, 0.12359624422492699, 0.5008629210570206, 2360643000000, 
-0.1387196601236223, 0.21059162463252296, 0.5038119366880429, 2360649000000, 
-0.11956019760582128, 0.14132068037626175, 0.5071309248762988, 2360654000000, 
-0.0933373467990515, 0.1897529211109173, 0.5127689968213708, 2360661000000, 
-0.042472903252625246, 0.15472048798967608, 0.516631069544344, 2360666000000, 
-0.023486357908388343, 0.27882144265560466, 0.5210302329531651, 2360671000000, 
0.14226889468861964, -0.020630624630959674, 0.5241573324693118, 2360676000000, 
0.019818081478504713, 0.15265290175769058, 0.5254143107353355, 2360682000000, 
-0.129596944611754, 0.15995136841980465, 0.5251946602364977, 2360687000000, 
-0.07529437000705862, 0.12683686658158677, 0.5239269795705107, 2360692000000, 
-0.0035238531659928874, 0.13532116628158608, 0.5222305124801125, 2360697000000, 
-0.03269234594580628, 0.16671501324433707, 0.5204975318349043, 2360702000000, 
-0.09749619029374613, 0.13624500523070734, 0.5147260404415598, 2360707000000, 
-0.002091308746319697, 0.16864277419236412, 0.5119600915851734, 2360712000000, 
-0.01918408414823415, 0.25667022184752, 0.5063116598904945, 2360719000000, 
-0.08409884615783687, -0.05148868138972287, 0.5033152822839099, 2360724000000, 
-0.016118427800053133, 0.17108894528677537, 0.5002366962914334, 2360729000000, 
-0.041707021819667525, 0.22437421891468504, 0.49608625115268007, 2360735000000, 
-0.08596743513058244, -0.015058811104545117, 0.49502732025925517, 2360740000000, 
-0.052168784495929224, 0.306058632261228, 0.4931065989574536, 2360746000000, 
-0.08605023569488628, 0.011140979754202826, 0.49152917759326564, 2360751000000, 
-0.07899633785452603, 0.1310129803217665, 0.49196650281000526, 2360756000000, 
-0.05369692125734089, 0.3090717778782866, 0.4918374607323815, 2360761000000, 
-0.07743894238975352, -0.03657286827873459, 0.49216179332924087, 2360766000000, 
-0.06463110690112821, 0.13680129166907437, 0.4939184672582456, 2360771000000, 
-0.024697287520809116, 0.2902415955269919, 0.49542044722399076, 2360776000000, 
-0.0645011249979196, 0.06188047959908652, 0.49802872500254075, 2360783000000, 
-0.023537207369821123, 0.29152198347089076, 0.4994887717219816, 2360788000000, 
-0.09550321488338419, 0.006612383144879365, 0.5002642912668325, 2360793000000, 
-0.04773968405043112, 0.3370904134866582, 0.502477525697277, 2360798000000, 
-0.135271614425801, -0.003426322473444367, 0.5032871858247308, 2360803000000, 
-0.03919800031043515, 0.1644939389864629, 0.5044487750074254, 2360808000000, 
-0.02305807022128034, 0.3050512482342914, 0.5042511966336279, 2360813000000, 
-0.08258776350608196, 0.0045792653380033795, 0.5045620958673711, 2360818000000, 
-0.05937536697625909, 0.3612336434234823, 0.504626740329309, 2360823000000, 
-0.061565152491743255, 0.14644892561170827, 0.503927984282649, 2360828000000, 
-0.12904262965929297, 0.04098675109362453, 0.5037091203420523, 2360834000000, 
-0.0015820252058951628, 0.3079066514020473, 0.5023913261926434, 2360839000000, 
-0.10757560687147916, -0.010471186516755989, 0.5016915988092545, 2360844000000, 
-0.03885200135785828, 0.3456705539555825, 0.5012864973297106, 2360849000000, 
-0.06912839201971466, 0.157152261384589, 0.49946399995184554, 2360854000000, 
-0.07688169694720565, -0.01813961596795427, 0.499091927293042, 2360859000000, 
-0.032969881440589176, 0.342321339331975, 0.4981758713260081, 2360864000000, 
-0.10031860265976027, -0.011935727106289899, 0.4975051915190523, 2360869000000, 
-0.04770365342372969, 0.15140919861876748, 0.4983071788373635, 2360874000000, 
-0.03123864807861846, 0.40479541357518783, 0.4977620534376931, 2360879000000, 
-0.08024281216485328, -0.01207903473723777, 0.49739563827345756, 2360884000000, 
-0.03883466867212724, 0.30859254725835755, 0.4980483729058206, 2360889000000, 
-0.04463756352076185, 0.13892175442152593, 0.4982107468343904, 2360894000000, 
-0.09408665001995667, -0.04270171804590327, 0.498671258734277, 2360899000000, 
-0.009260812666578092, 0.3205085516268009, 0.49938481992134154, 2360904000000, 
-0.08096538791110716, -0.05050663245937001, 0.4998572336603417, 2360909000000, 
-0.008248033910129324, 0.33065249771480354, 0.5005535576199387, 2360914000000, 
-0.1485375310453713, -0.017179872300113506, 0.5014585001376409, 2360919000000, 
0.0015678354305203278, 0.2082775144331298, 0.5021731075185091, 2360924000000, 
-0.0977845888210361, 0.2782865799580644, 0.5035737150919976, 2360929000000, 
-0.0661601791680342, 0.004074058980625864, 0.5050242681755206, 2360934000000, 
-0.010804958642909394, 0.18708875960088478, 0.5064250852164036, 2360939000000, 
-0.11432286497654721, 0.28846961868070475, 0.5075127682079636, 2360944000000, 
-0.04869006825115883, -0.03629523762010793, 0.5088471206105682, 2360949000000, 
0.0064201809438969755, 0.1608847231924265, 0.5098431889868384, 2360955000000, 
-0.22103751065349267, 0.1674966158559863, 0.5103839287701504, 2360960000000, 
-0.06807166183410833, 0.14055926836286656, 0.5114451077434847, 2360965000000, 
0.003884332867127468, 0.16540751688130423, 0.5116998982574475, 2360971000000, 
-0.1609739821823686, 0.2990485190017229, 0.5115911895187659, 2360976000000, 
-0.055078445623818306, -0.045714730961336575, 0.511951494803553, 2360981000000, 
-0.1346774109898855, 0.12171294740040785, 0.5121080509552648, 2360986000000, 
-0.0882415418541266, 0.1787086540294577, 0.5134800235451609, 2360991000000, 
-0.014113177767317915, 0.1721978692597691, 0.5138941043681887, 2360996000000, 
0.06416343112169759, 0.21074419745142658, 0.5141897975793523, 2361001000000, 
-0.12345466370037544, 0.16585179569441577, 0.5139282800535875, 2361006000000, 
-0.07342055985018486, 0.3243088441846003, 0.5144624344430616, 2361011000000, 
0.036858972408273794, -0.010202203188530577, 0.5148123347135669, 2361016000000, 
-0.04056688212930752, 0.13450092577431483, 0.5137624976080224, 2361021000000, 
-0.09430229444910035, 0.24414301381376605, 0.5128241087469414, 2361026000000, 
-0.0693865979468738, -0.0011535562503568984, 0.5128099990316124, 2361031000000, 
-0.14416690832844742, 0.07922440531184707, 0.5122580213809933, 2361036000000, 
-0.009980192868818464, 0.3081510108641047, 0.5126967921195309, 2361042000000, 
-0.0230823456668116, -0.02148693734960714, 0.5130056045020708, 2361047000000, 
0.018806304591492205, 0.16086130302415408, 0.5124594565205316, 2361052000000, 
-0.09252739504141241, 0.29489269408386143, 0.5114539366398511, 2361057000000, 
-0.047545420896572814, -0.028253897352190548, 0.5111862604368277, 2361062000000, 
0.0028901302169365446, 0.1417808324522593, 0.5102644230281677, 2361067000000, 
-0.06165320331167068, 0.3024646114405276, 0.5088740658923261, 2361073000000, 
-0.07627663025492273, 0.01982657493703346, 0.5076515615773669, 2361078000000, 
0.00985133074417675, 0.18080115542444958, 0.5065203486619883, 2361083000000, 
-0.010015347797659335, 0.1427637625470563, 0.5038423092130492, 2361089000000, 
-0.05060366261196299, 0.15255060090243208, 0.5025108444081349, 2361094000000, 
-0.018282268248948012, 0.12678308248001557, 0.4992573806106672, 2361101000000, 
-0.04891119799820637, 0.15566840870548343, 0.49802578821675403, 2361106000000, 
0.004741207424718782, 0.3052604176810483, 0.49726508482606957, 2361111000000, 
-0.1025856000303215, -0.0031548373955715835, 0.495493130573625, 2361117000000, 
-0.005850618725522325, 0.16445656459866373, 0.4950636950399612, 2361122000000, 
-0.014589711670162365, 0.3311359838815759, 0.4945575885938318, 2361127000000, 
-0.09422673714862446, -0.03127461451379119, 0.495484870891976, 2361133000000, 
-0.08017943956280978, 0.18001719675514563, 0.4959216674892282, 2361138000000, 
0.003962691960624012, 0.35776457020534347, 0.4962504360875212, 2361143000000, 
-0.12034946213021819, -0.047625161668255846, 0.49721624981908497, 2361148000000, 
-0.007394249755415288, 0.3093552888007433, 0.4984140786938814, 2361153000000, 
-0.10198094250782364, -0.018655923083866613, 0.49963798833614176, 2361159000000, 
-0.023998587032776224, 0.1488253761435486, 0.5012444948134102, 2361164000000, 
0.013940563211500362, 0.31857897343698033, 0.5013906010525977, 2361169000000, 
-0.12870338716530597, -0.12117791199144039, 0.5021355643336263, 2361174000000, 
-0.024623677527393955, 0.14967430190991693, 0.5033841918550719, 2361179000000, 
0.021922512406581177, 0.3273219194587364, 0.503258311488151, 2361184000000, 
-0.10380658704372041, 0.03315619700488384, 0.5035328662605995, 2361191000000, 
0.007928716806129195, 0.32282237888432536, 0.5034536242220132, 2361196000000, 
-0.09757890773244057, 0.020692976820796297, 0.5028120817423355, 2361201000000, 
-0.06028469306826573, 0.1747177635074066, 0.5024059838540619, 2361206000000, 
0.011040468277392364, 0.37248890074144375, 0.5014370864257199, 2361211000000, 
-0.09709444266658535, -0.05572122175382565, 0.5010643599637425, 2361216000000, 
0.01965112970610313, 0.32937729433018864, 0.5005901740570546, 2361221000000, 
-0.08448846192542295, 0.00536479914598856, 0.49936669559937263, 2361227000000, 
-0.04353455780963991, 0.15885965088109374, 0.4996099970776454, 2361232000000, 
0.027817565765436526, 0.3274634881643459, 0.49839645841228103, 2361237000000, 
-0.14410228724106675, -0.04852397199430138, 0.49850546615711344, 2361242000000, 
0.018376557513130273, 0.3132911433390853, 0.4980371747699775, 2361247000000, 
-0.16431483230653166, -0.1262748595840994, 0.4977940927212155, 2361252000000, 
-0.04026874834756291, 0.17519603268716805, 0.49854896914191854, 2361257000000, 
0.007950571624645351, 0.32036816629925313, 0.4984833069753778, 2361262000000, 
-0.16595435260982108, -0.13264698172541906, 0.4987741530410946, 2361267000000, 
-0.05067859042465488, 0.1402150344620472, 0.4998193206819059, 2361272000000, 
-0.0673057852875048, 0.13696131479863918, 0.49956970112268156, 2361277000000, 
-0.06891867516145343, 0.11445497168430276, 0.4998288859277475, 2361282000000, 
-0.058300855925641194, 0.16579976222251452, 0.5007444914863116, 2361287000000, 
-0.047134964249310074, 0.1403689441754007, 0.500624732980395, 2361292000000, 
-0.07580331396356352, 0.13536611598407206, 0.5010685769610034, 2361297000000, 
-0.0021852976592973868, 0.3205351535444036, 0.501572606194559, 2361302000000, 
-0.15530580313966244, -0.05384490070955529, 0.5010903415488827, 2361307000000, 
-0.020880698728938937, 0.1834282852098539, 0.501085763275755, 2361312000000, 
-0.07182981637479806, 0.15003878130532142, 0.5012286804713809, 2361317000000, 
-0.049669665815483, 0.13638223721519954, 0.5011716424690011, 2361322000000, 
-0.09251938865745159, 0.15372057128441793, 0.5011779327119751, 2361328000000, 
0.0604632991167983, 0.40839763197139284, 0.5005105001441426, 2361333000000, 
-0.15604118533934583, -0.08130655566425823, 0.5006933474968533, 2361338000000, 
-0.04651621544625947, 0.1690922832371275, 0.5004170229549801, 2361343000000, 
0.03132257261525326, 0.3009540052145114, 0.5003072927857866, 2361348000000, 
-0.17192649387542688, -0.03267287048325181, 0.4999127791077466, 2361353000000, 
-0.043144494682174496, 0.16285449246287348, 0.4999972986891558, 2361358000000, 
-0.054547158896573356, 0.15179040157749057, 0.5000105794707927, 2361363000000, 
-0.02957934127820267, 0.14746581715327123, 0.4995842810717373, 2361369000000, 
-0.06440561263974058, 0.17331414421288965, 0.499630199924163, 2361374000000, 
0.03962326268090828, 0.31469124508970114, 0.4996748378312452, 2361379000000, 
-0.17916823896869655, -0.06956836545097876, 0.49961106153040324, 2361385000000, 
-0.04263410335452368, 0.18469326223079297, 0.5004701806683898, 2361390000000, 
0.05308305942382355, 0.38284553359421725, 0.4995317142068169, 2361395000000, 
-0.11841524525430086, -0.03129387170957584, 0.5001279165293246, 2361401000000, 
-0.053107167777258886, 0.14968270765402086, 0.5002317928633976, 2361406000000, 
0.0413826750818945, 0.3129480087498854, 0.5003372120026375, 2361411000000, 
-0.16755743842071547, -0.05980928200048574, 0.4997956974715342, 2361416000000, 
-0.0487230820921012, 0.16900463713326216, 0.5006054580878044, 2361421000000, 
-0.005695279918637979, 0.29945447076091175, 0.5003377180244574, 2361426000000, 
-0.11820122428575483, -0.029058215097864194, 0.5005291411858881, 2361431000000, 
-0.04081303457040816, 0.17343426090098105, 0.5012662981396838, 2361436000000, 
-0.04164974940422185, 0.14215820249175648, 0.5012900877594308, 2361441000000, 
-0.09095016505843585, 0.11798725239143351, 0.5012244885614351, 2361446000000, 
-0.02989119856473829, 0.16210940619495065, 0.5015244996474841, 2361451000000, 
0.027889851347906572, 0.29337064194249407, 0.502036989646191, 2361456000000, 
-0.18708960074953615, -0.06154678822764728, 0.5016913463602861, 2361461000000, 
-0.05328333556432518, 0.17216187095156044, 0.5019504842613273, 2361466000000, 
0.019996718998048255, 0.29789715370219494, 0.5020692920732369, 2361471000000, 
-0.12986213797048338, -0.04153120366582564, 0.5016657301858782, 2361476000000, 
-0.052301958271585944, 0.15763695663414334, 0.5023484381799087, 2361481000000, 
0.031186003384957802, 0.29206603027195877, 0.5017219638873843, 2361486000000, 
-0.15421590986198797, -0.041601478166270286, 0.5014858291415568, 2361491000000, 
-0.052301516989790485, 0.14985760014967242, 0.5012695380753537, 2361496000000, 
0.02911315006261374, 0.3115723349635123, 0.5007931912930935, 2361501000000, 
-0.10832000774903117, -0.018778674668240843, 0.5004503734547524, 2361506000000, 
-0.07335385274227398, 0.16715918946705988, 0.5003023957171459, 2361511000000, 
-0.05245880571626901, 0.11905468932971613, 0.49918578913416417, 2361516000000, 
-0.07600397000093548, 0.13028077615610265, 0.49924536547984777, 2361521000000, 
0.01817756435644852, 0.34220313163764726, 0.4992617507153708, 2361526000000, 
-0.12723293269700633, -0.07203184232693625, 0.4991759538378088, 2361531000000, 
-0.04663362405162526, 0.17762021950107854, 0.498927751283439, 2361536000000, 
-0.06960930312709687, 0.1593729973709057, 0.49852888163381254, 2361541000000, 
-0.05542023688277871, 0.11672756598648125, 0.498933495621441, 2361546000000, 
0.04381122684199314, 0.349275810250368, 0.499520696089737, 2361551000000, 
-0.16844252844090998, -0.09419297910301286, 0.4991124703232632, 2361556000000, 
-0.018635961940111745, 0.1673369185883102, 0.49961831175347526, 2361561000000, 
-0.030314477331686605, 0.26534678240340076, 0.49951583344101125, 2361566000000, 
-0.15508263166102004, -0.04981062517545736, 0.4999048374292251, 2361571000000, 
0.032432567736115685, 0.3155856608198293, 0.5007498408234845, 2361576000000, 
-0.03498481719938042, 0.177132130743882, 0.5004067099656139, 2361581000000, 
-0.1919996412378867, -0.18214430390137074, 0.5006428832021941, 2361586000000, 
-0.0015719782719489563, 0.2696707997199902, 0.5005891579219363, 2361591000000, 
-0.15591524193958936, -0.08121315273023055, 0.5010754492690053, 2361596000000, 
-0.050453626696087175, 0.20153880973323152, 0.5011009404122302, 2361601000000, 
-0.01976808722132483, 0.3327944506826976, 0.5008863172874799, 2361606000000, 
-0.1307599799664157, -0.05763686496792758, 0.5006488114634094, 2361611000000, 
-0.04004681244202151, 0.1719127678193884, 0.5008302936927606, 2361616000000, 
-0.02628237708970564, 0.3305283446464103, 0.5003128799016968, 2361621000000, 
-0.11398577533976026, -0.06444054379191054, 0.5002954050487977, 2361626000000, 
-0.04093122238265401, 0.16604027762293697, 0.5004479592647871, 2361631000000, 
0.01921189014310586, 0.34129633932356485, 0.49965258760761194, 2361636000000, 
-0.13110702548721406, -0.0325473573815911, 0.49987724920564675, 2361641000000, 
-0.04241517626882309, 0.1700486952358673, 0.5001944117376854, 2361646000000, 
0.0063121384183417745, 0.27742298477497035, 0.499620006836516, 2361651000000, 
-0.14448580051343482, -0.04889804793587301, 0.4999236580855156, 2361656000000, 
-0.07616215673504238, 0.18642184569052458, 0.5001497345639371, 2361661000000, 
-0.0236338487919396, 0.1294645054251382, 0.49987574281189284, 2361667000000, 
-0.07796407511850846, 0.12285688184158522, 0.5001766023539174, 2361672000000, 
0.04595682311141861, 0.320412218038171, 0.49990339482478674, 2361677000000, 
-0.12518780544985503, -0.05996039189937812, 0.4998741665213998, 2361682000000, 
-0.06159678429248126, 0.17332407994526258, 0.5003929206533689, 2361687000000, 
-0.09320641905639325, 0.3074330797340856, 0.5006576505084052, 2361692000000, 
-0.07532400090059069, -0.01989734516497464, 0.5008592808398034, 2361697000000, 
0.030553204907419855, 0.3087605042371069, 0.5020620133333322, 2361703000000, 
-0.18195732353579888, -0.04632198106179711, 0.5033013436657938, 2361708000000, 
0.024843129767213763, 0.1685533955207055, 0.5041913607246514, 2361713000000, 
-0.09497092123847353, 0.29233745930586974, 0.5049204238881925, 2361718000000, 
-0.08339291985679037, 0.008031675943535162, 0.5067800122547967, 2361723000000, 
-0.010316742322253296, 0.34771825561995284, 0.5071762166059233, 2361728000000, 
-0.16152665228365642, -0.08400155598242057, 0.5076271949079779, 2361733000000, 
-0.012422443237026777, 0.1489117956342935, 0.5080829983026316, 2361738000000, 
-0.03831910669239061, 0.2694869103363598, 0.5083553825703689, 2361744000000, 
-0.0777562826646894, -0.0271740551893824, 0.5086138770541905, 2361749000000, 
0.02286278866869486, 0.1898748167614274, 0.5085606638367893, 2361754000000, 
-0.07136681081563226, 0.2793204943528529, 0.5080184238024423, 2361759000000, 
-0.08878646238674634, -0.016633877717544942, 0.5085135939555623, 2361764000000, 
-0.01998148605220201, 0.18631705968477966, 0.5083583331467584, 2361769000000, 
-0.09366618969761946, 0.30431149807947183, 0.5076529962606904, 2361774000000, 
-0.03155583733332054, 0.026503582620020238, 0.5076936762768294, 2361780000000, 
-0.019679042385719398, 0.2590040139133701, 0.507998242000443, 2361785000000, 
-0.12826555572126164, -0.07373253510825434, 0.5077190030232364, 2361790000000, 
0.0035455054955834562, 0.1507372528801908, 0.5080293478889744, 2361795000000, 
-0.08928652781638141, 0.2736215662110105, 0.5075013221523216, 2361800000000, 
-0.09625655091154522, -0.035613955076257926, 0.5071621758420858, 2361805000000, 
-0.004890882274248554, 0.17984893385847378, 0.5075214869747166, 2361810000000, 
-0.02775473759528796, 0.3393104752984924, 0.5066563334908136, 2361815000000, 
-0.08011100347952901, -0.032187030408235416, 0.5063074344700244, 2361820000000, 
0.004993339642143924, 0.3526424546328938, 0.5058703059540954, 2361825000000, 
-0.14674070414223603, -0.04121541665765299, 0.5043392913866218, 2361830000000, 
-0.022190843538067294, 0.18034908189570192, 0.5043813932192682, 2361835000000, 
0.026359202777812275, 0.3657439159562954, 0.502945614468766, 2361840000000, 
-0.1567841113897711, -0.07418210134271899, 0.5015712392769363, 2361845000000, 
0.021111904947393244, 0.3870985537332079, 0.5011100572366443, 2361850000000, 
-0.09028011639181344, -0.0028238106157167696, 0.49961932159924516, 2361855000000, 
-0.05722833157593793, 0.16779128804288926, 0.4989395750776677, 2361860000000, 
0.021751318196929208, 0.36787214186485223, 0.4979287383350096, 2361865000000, 
-0.11093935245920519, -0.09312849408701086, 0.49718087606569994, 2361870000000, 
-0.06747513413096366, 0.16728655993830896, 0.4973237910033192, 2361875000000, 
0.024104301176802782, 0.34997558480172974, 0.4968965815403959, 2361880000000, 
-0.17985608597000977, -0.18210000921972086, 0.4968359141896515, 2361885000000, 
-0.032109673094063915, 0.28627306680480974, 0.4976747632725681, 2361890000000, 
-0.14577806683976727, -0.09746181185913752, 0.49763820644045026, 2361895000000, 
-0.07099669996468555, 0.15993161696730473, 0.498708644736885, 2361901000000, 
0.0472376763825048, 0.3636726589773773, 0.4990076867015964, 2361906000000, 
-0.11345444823714229, -0.053095788172372094, 0.49975945435640895, 2361911000000, 
-0.04771212779829089, 0.18131541297899575, 0.5000007801050202, 2361916000000, 
-0.0012307312149916934, 0.2598092302566761, 0.5006349162963629, 2361921000000, 
-0.10746794806016458, -0.016367303991746365, 0.5014683265021795, 2361926000000, 
0.021213532582869666, 0.35408671085628296, 0.5018899386773151, 2361931000000, 
-0.12564784182590322, -0.06822648427407181, 0.5021419117045081, 2361936000000, 
-0.0927449378669972, 0.17987667827518566, 0.5022772126104562, 2361941000000, 
0.03707882130651963, 0.3508013364146508, 0.5018964164045637, 2361946000000, 
-0.10601077590338842, 0.015404870277528874, 0.502006665111312, 2361953000000, 
0.012002341736101148, 0.2949781378354462, 0.5016110620569928, 2361958000000, 
-0.09977010769263246, 0.02297412080177348, 0.5009516996978626, 2361963000000, 
-0.05855762086761043, 0.16048079464016518, 0.5006820459864175, 2361968000000, 
-0.010284307181112166, 0.32967433063678464, 0.5001112053072287, 2361973000000, 
-0.10865869932379593, -0.02723603297880373, 0.4996449508397582, 2361978000000, 
-0.07249550360243255, 0.16112688916638154, 0.49991413677148855, 2361983000000, 
0.0031254919182346196, 0.27297328609325217, 0.499490722639517, 2361988000000, 
-0.11638104783248365, -0.032689559950930855, 0.4987561321103559, 2361993000000, 
-0.0645928619764119, 0.17426596857125384, 0.49906476690347024, 2361998000000, 
-0.0007127345460300463, 0.26827929432462894, 0.49887475759331473, 2362004000000, 
-0.15014004690949184, -0.05879506888048931, 0.49895669373229506, 2362009000000, 
-0.08523517461110763, 0.17070563716743156, 0.4996688323503824, 2362014000000, 
-0.03587226983448143, 0.12075760391790805, 0.4994916192281136, 2362019000000, 
-0.06437700568894357, 0.1381210013703518, 0.4995426925203347, 2362024000000, 
-0.07437343341339515, 0.1763876931437949, 0.5003316562461814, 2362029000000, 
-0.05188440676790587, 0.1469220234412864, 0.5000605979916911, 2362034000000, 
-0.04180935606276889, 0.15592054179948484, 0.5004466292613409, 2362039000000, 
-0.047052826457926133, 0.1389532136446462, 0.5008477703987472, 2362044000000, 
-0.07445810763133562, 0.1450245448115594, 0.5009921020769952, 2362049000000, 
-0.07197980331261683, 0.05093481194199012, 0.5003795755055658, 2362054000000, 
-0.046793781762236794, 0.18486246540470758, 0.5017386983757837, 2362059000000, 
-0.03629327767674999, 0.3036544434197619, 0.5015501689540105, 2362064000000, 
-0.12500691808788825, -0.004110366702170694, 0.5023173146687737, 2362069000000, 
-0.03226021934240938, 0.145782466992182, 0.5025824813465928, 2362074000000, 
-0.10299138990197018, 0.29908980541975727, 0.5026072703902562, 2362079000000, 
-0.03687544379677901, 0.022317559391706786, 0.5033488143656093, 2362085000000, 
-0.040753071895967545, 0.15079730724315937, 0.5036699839565111, 2362090000000, 
-0.0013646401748103063, 0.44322769988883326, 0.5038780087676464, 2362095000000, 
-0.08706477523309038, 0.01854193886011722, 0.5045057042102601, 2362100000000, 
-0.03504133097880447, 0.12781324377014916, 0.5039820479726553, 2362105000000, 
-0.030553136275839506, 0.3533616761012078, 0.5035436239370173, 2362111000000, 
-0.07937431528208405, 0.011987608717804535, 0.5034893437085979, 2362116000000, 
-0.05275731201377905, 0.13038960156990584, 0.5033064906755048, 2362121000000, 
-0.047742096257371275, 0.1340486436398454, 0.5020787566153241, 2362126000000, 
-0.0770216231692246, 0.15834614287818435, 0.5014432564796109, 2362131000000, 
0.002479686069576543, 0.2975253779761331, 0.5000786416648878, 2362136000000, 
-0.12101127871447807, -0.04316894348452979, 0.49945578409399416, 2362141000000, 
-0.043164983799471965, 0.16411423564949315, 0.49939497679754197, 2362146000000, 
-0.058829470408919456, 0.14582416869220186, 0.4985287934256658, 2362151000000, 
-0.05434640022053535, 0.15393961114752797, 0.49858361365185183, 2362156000000, 
-0.014484211197325106, 0.2960565411318484, 0.4981459418933829, 2362161000000, 
-0.10178928432297897, -0.04005373321950974, 0.4977621125895956, 2362166000000, 
-0.0823336046358777, 0.16783664091351233, 0.4983229172221554, 2362171000000, 
-0.011684651276118809, 0.326682195329788, 0.49834755255667, 2362176000000, 
-0.14519602083093328, -0.054479611778368575, 0.49867711510332446, 2362181000000, 
-0.06708878483307912, 0.20206248088831563, 0.4992913097971415, 2362186000000, 
0.027808236446067003, 0.27570807458495356, 0.4991791978219382, 2362191000000, 
-0.0964128878893856, 0.012700218990085511, 0.49994772607276217, 2362196000000, 
-0.0451302017359209, 0.12961447670284076, 0.50067729640978, 2362203000000, 
0.013201333390520183, 0.3148421771547373, 0.5008318545885811, 2362208000000, 
-0.13616111849440882, -0.030238779831343147, 0.5009972044947459, 2362214000000, 
-0.06410393867499052, 0.16454696350393894, 0.5013822932590617, 2362219000000, 
0.013849342870393706, 0.2476583743328908, 0.5012693980502074, 2362224000000, 
-0.16579226556767163, -0.15476479563294895, 0.5016050358105241, 2362229000000, 
-1.819837967934751e-06, 0.2557680703262392, 0.5018100168881635, 2362234000000, 
-0.09190133586986168, 0.02351203099643922, 0.5010870728514456, 2362240000000, 
-0.05104820622122886, 0.17248823854107886, 0.5012728582639127, 2362245000000, 
0.0022272343341590423, 0.2793091556023508, 0.5009651953120189, 2362250000000, 
-0.08395098608880527, -0.021189115288335884, 0.5005797045907685, 2362255000000, 
-0.061392507550290736, 0.18418344992697364, 0.5006100879647837, 2362260000000, 
0.002291048633448256, 0.2789833386688442, 0.49951971963756053, 2362265000000, 
-0.10091539378842349, -0.07951922613184129, 0.4997837099242752, 2362270000000, 
-0.050910107370999845, 0.1545897920873187, 0.49969827379998005, 2362275000000, 
-0.01497143896578785, 0.2652597192045337, 0.49953229981918157, 2362280000000, 
-0.10236971944918566, 0.01645055943496055, 0.499243242448936, 2362287000000, 
0.016816226694315053, 0.27350332204769334, 0.4993588990178477, 2362292000000, 
-0.16779071258840936, -0.058680301041387065, 0.4992486268307701, 2362297000000, 
-0.11000280723979605, 0.1559008203521127, 0.4996411539662995, 2362302000000, 
0.04559042830018107, 0.2841317947600708, 0.499709558763388, 2362307000000, 
-0.12838419581357666, -0.02690087993907038, 0.49994884648346366, 2362312000000, 
-0.046293571296661326, 0.1523608663465366, 0.5001863079350684, 2362317000000, 
0.019212152644481808, 0.299715503374578, 0.5001643881901058, 2362322000000, 
-0.1307709000492277, 0.020364742696404977, 0.5005164690763577, 2362327000000, 
-0.04176107363870638, 0.1572904958253068, 0.5009036705662694, 2362332000000, 
-0.061689335550922736, 0.10982015063249659, 0.5002871627818419, 2362337000000, 
-0.05789594109301924, 0.1624432821475903, 0.500677909705167, 2362342000000, 
0.04724618243554499, 0.3322155496588461, 0.500425721186574, 2362347000000, 
-0.11352672713819567, 0.04125999681532991, 0.5006505582580825, 2362352000000, 
0.011692654367134715, 0.27536385454044154, 0.5009614551197714, 2362357000000, 
-0.10465461232423624, -0.01072834657840159, 0.5005375680794993, 2362362000000, 
-0.03339250761921959, 0.15938256310059995, 0.5009509255091205, 2362367000000, 
-0.004011208275457093, 0.2750546652703509, 0.5004754459461804, 2362372000000, 
-0.1316138691199246, -0.07959613364932228, 0.5003007559924949, 2362377000000, 
-0.024113316871449818, 0.2389457718733427, 0.5003805674975904, 2362383000000, 
-0.1229941515344598, -0.01732581657995465, 0.5005537792954562, 2362388000000, 
-0.022090501192547525, 0.16396440073558563, 0.5008968955451149, 2362393000000, 
-0.05649960772264541, 0.18465361123996193, 0.5016713135462664, 2362398000000, 
-0.11614720520808999, 0.1084533945152271, 0.5022195291603474, 2362403000000, 
-0.008742944419524796, 0.15694385378131603, 0.5031676830015782, 2362408000000, 
-0.05124290277773118, 0.11825445556125005, 0.5039580390459137, 2362414000000, 
-0.055642887524821424, 0.1477302923477446, 0.5050721534371189, 2362421000000, 
-0.06260077711623727, 0.1767884776426835, 0.5060660206043601, 2362426000000, 
-0.07436527470420423, 0.26740743932733024, 0.5071488477077868, 2362431000000, 
-0.011466670087720579, 0.03715630325240585, 0.5076362982871333, 2362436000000, 
-0.032719900647007596, 0.19660516352722163, 0.5086629093832773, 2362441000000, 
-0.07156148536859437, 0.25240405395778065, 0.5085007237478312, 2362446000000, 
-0.037538664238107186, 0.019250068984460276, 0.5092807289604769, 2362451000000, 
0.0019699574049791557, 0.18602664555416587, 0.5092183024635349, 2362456000000, 
-0.08280296945171496, 0.3136359139893022, 0.5088023648971515, 2362461000000, 
-0.24959287443824194, -0.2121045108538613, 0.5090025370116754, 2362466000000, 
-0.0433595158289748, 0.1638136704680563, 0.5088370224725361, 2362471000000, 
-0.10590292155330568, 0.13060143458828566, 0.5079144308446009, 2362476000000, 
0.00011554104806656834, 0.10616989822673079, 0.5088080300847411, 2362481000000, 
-0.014894879090819406, 0.1879181212476683, 0.5081304330154658, 2362486000000, 
-0.14615423113857623, 0.15947183395112252, 0.5076932827753666, 2362491000000, 
0.038172419695694945, 0.15333664131704577, 0.5074610433578899, 2362496000000, 
-0.07498364816221575, 0.2727151938187947, 0.5069988555428965, 2362501000000, 
-0.10485957014087355, 0.037097613003263794, 0.5063060228441228, 2362506000000, 
-0.02187058022781082, 0.17827991262992982, 0.5060798122027241, 2362511000000, 
-0.08679656194294386, 0.28990000555590184, 0.5053420232459781, 2362516000000, 
-0.08179324037242436, -0.02782526753802099, 0.50460616479562, 2362521000000, 
0.018267097121276478, 0.2875759567557299, 0.5031800720815276, 2362526000000, 
-0.13436441811546634, -0.01233107949015557, 0.5016810600130777, 2362531000000, 
-0.04261846999758438, 0.16601404767500322, 0.5005533909599389, 2362536000000, 
0.024359478216497175, 0.3013535683138208, 0.4991273548228105, 2362541000000, 
-0.12421320676347969, 0.0224190032207433, 0.49794295197128546, 2362546000000, 
-0.03284549867367571, 0.27993833140152635, 0.4973398036623266, 2362551000000, 
-0.08832495749061184, 0.008743348333875384, 0.49684452883456753, 2362556000000, 
-0.06137248851267163, 0.14076377993863257, 0.49672080098323695, 2362561000000, 
0.022706495939136605, 0.25632023578918955, 0.49652687604292783, 2362566000000, 
-0.12733238078496928, -0.03292456797444043, 0.4962918356712447, 2362571000000, 
-0.040192226815926546, 0.24246891603813597, 0.4971371843975785, 2362576000000, 
-0.12807395903135874, 0.03720819485480447, 0.4974038901124202, 2362581000000, 
-0.04886800824822775, 0.12473757134222649, 0.49820033833950866, 2362586000000, 
-0.0328098765802502, 0.2645857137782269, 0.4989101105511852, 2362591000000, 
-0.12050084847300896, -0.025255961923525888, 0.4994878663320326, 2362596000000, 
0.012685175163402212, 0.32949025518369135, 0.5004038297901219, 2362601000000, 
-0.11503236317793858, -0.009865052339656474, 0.5009805136631031, 2362606000000, 
-0.05859498691566174, 0.17806640409509297, 0.5018616534924798, 2362611000000, 
-0.022708639415371133, 0.2730826141621268, 0.5020141363538299, 2362616000000, 
-0.12657086842749, 0.07131467028239209, 0.5024494802976616, 2362623000000, 
0.028526771984252634, 0.3351513994860791, 0.5025358642846517, 2362628000000, 
-0.07295180950067014, 0.04978386337225255, 0.5021892616157368, 2362633000000, 
-0.008320751293783034, 0.291440629205986, 0.502142563009765, 2362638000000, 
-0.09690966283103426, 0.009421312134929513, 0.5015831207613787, 2362643000000, 
-0.06991188527650458, 0.16019817557158522, 0.5014423324631708, 2362648000000, 
-0.013532325200178365, 0.26505601812270607, 0.5013139724402154, 2362653000000, 
-0.07409070970833025, 0.021898502901417267, 0.500267661272425, 2362658000000, 
-0.06577056126537953, 0.16893512077278688, 0.5006295233707875, 2362663000000, 
-0.009389930930862076, 0.2662371259159888, 0.49968141055405674, 2362668000000, 
-0.12936616104683496, -0.012542304468458366, 0.4991746486142242, 2362673000000, 
-0.04314793402669953, 0.1720035707197618, 0.49949724531560186, 2362678000000, 
-0.020420324892454447, 0.26085223756026715, 0.49862693268170194, 2362683000000, 
-0.12704803301304365, -0.010570593857494348, 0.49851683223490567, 2362688000000, 
-0.009571314855023785, 0.2431272114172247, 0.4991304739117715, 2362693000000, 
-0.0777923917432998, 0.008780042149158056, 0.49878962695274615, 2362698000000, 
-0.037072689567842515, 0.13003925399708174, 0.4991424110081841, 2362703000000, 
-0.014393781956129966, 0.2687890237852887, 0.49945458761018974, 2362708000000, 
-0.09739456062653344, 0.0320229715696195, 0.4995111093253997, 2362713000000, 
-0.03807649208415711, 0.24291592588361144, 0.4997845729603555, 2362722000000, 
-0.0898064926436304, 0.07867852938365075, 0.5009856057145912, 2362729000000, 
0.003453121073676735, 0.2506708071924142, 0.5005980154849867, 2362734000000, 
-0.1804418825644037, -0.17854798088428078, 0.5006816399139176, 2362739000000, 
-0.05795153458806244, 0.15162026239546625, 0.5010554308777633, 2362744000000, 
-0.08444619938218896, 0.29490520901706313, 0.5008639685016422, 2362750000000, 
-0.08185610014943352, 0.010740552848314431, 0.5015216735853523, 2362755000000, 
-0.034419267657459354, 0.1391926479401708, 0.5021418329415288, 2362760000000, 
-0.08929813976658457, 0.25118386429586137, 0.5025035953920395, 2362765000000, 
-0.1250109948634657, -0.07427065451239244, 0.5025206883614314, 2362770000000, 
-0.007711140753705492, 0.15276838669404944, 0.5042409262462026, 2362775000000, 
-0.08690234657395422, 0.2583140160551162, 0.504432464528082, 2362780000000, 
-0.014268130045528755, 0.023157715728600915, 0.5055919198157903, 2362785000000, 
-0.02343119470807801, 0.13504267402541525, 0.5057431426947832, 2362792000000, 
-0.07883582585499153, 0.2804751235220316, 0.5062323297804541, 2362797000000, 
-0.05959972812747474, 0.08981135965576119, 0.5067060176547187, 2362802000000, 
-0.06431018977703074, 0.14358693392622437, 0.5064959488650933, 2362807000000, 
-0.1445554927257085, 0.1538825153457616, 0.5060993988825471, 2362812000000, 
0.028626753274978343, 0.14207123938020752, 0.5064682845189108, 2362817000000, 
-0.0402117553588959, 0.17239812238668192, 0.5056079496000434, 2362822000000, 
-0.10510519091771507, 0.15118202458699362, 0.5050181966410463, 2362827000000, 
-0.02471271799268574, 0.12198418503524824, 0.5039578750755435, 2362833000000, 
0.026542542156230402, 0.35521829338248107, 0.5027635158311341, 2362838000000, 
-0.10389648192510274, 0.041461023771273794, 0.5016800334179632, 2362843000000, 
-0.027875559611732555, 0.14527112906273829, 0.5004806177381, 2362848000000, 
0.01207851345503504, 0.28193893916980506, 0.4992720038971932, 2362853000000, 
-0.0670042182099321, 0.0514692395891952, 0.49812531544298816, 2362858000000, 
-0.0382159500401511, 0.20630829786399246, 0.49697249257091414, 2362864000000, 
-0.11539349369662408, 0.018797501635573078, 0.4964638040158327, 2362869000000, 
-0.03928541618099077, 0.1391507484597207, 0.49670940470570213, 2362874000000, 
-0.07238257154299713, 0.14813528017068514, 0.4964631340754001, 2362880000000, 
-0.08411471884388819, 0.15900656425880808, 0.49686784865909595, 2362887000000, 
-0.06508620251545952, 0.13739049502204215, 0.49747401578471295, 2362892000000, 
-0.04635879649148672, 0.13733928933957, 0.49845281494381066, 2362897000000, 
-0.02313083437148168, 0.27178016023816076, 0.498452920871597, 2362902000000, 
-0.08483098401834274, -0.027953073327111423, 0.4996200671767483, 2362907000000, 
-0.016379584364196446, 0.2629060841356248, 0.5002226824685396, 2362912000000, 
-0.02832713019916852, 0.1650681959718379, 0.5003051615349872, 2362917000000, 
-0.11816986252827637, 0.04914230213215633, 0.5016935910052552, 2362922000000, 
0.010091410997994325, 0.2612442088480397, 0.5014016547865371, 2362927000000, 
-0.1039811925923499, -0.01806831170172195, 0.5020863311018781, 2362932000000, 
-0.06356524474153982, 0.18640355299304565, 0.5024639894059739, 2362937000000, 
-0.029445771546821875, 0.2589087339639453, 0.5016999972227256, 2362942000000, 
-0.11151046330099756, 0.014015934135698772, 0.5024168246884109, 2362947000000, 
-0.034211107582062014, 0.19538968900134077, 0.502112812745164, 2362952000000, 
-0.03956106482534356, 0.15776024891294158, 0.5014553875490515, 2362957000000, 
-0.043408088230279016, 0.18815864367107593, 0.5012441996475724, 2362962000000, 
-0.015083145038184215, 0.2336814850268213, 0.5000947113915295, 2362969000000, 
-0.12490392176379658, -0.05152011675146887, 0.4999194342228243, 2362974000000, 
-0.04902128619428655, 0.16115231782527473, 0.4994915589322035, 2362979000000, 
-0.007189845306857943, 0.2982973007697872, 0.49924408570194295, 2362984000000, 
-0.06480105593575013, 0.0388279774897301, 0.49907941898419805, 2362989000000, 
-0.041498615826426104, 0.24712175849527931, 0.4994727902373291, 2362994000000, 
-0.10108607927589015, 0.06517520383497824, 0.4988742641375315, 2362999000000, 
-0.05432586483298813, 0.13656455074138285, 0.49935571938379786, 2363004000000, 
-0.002134975470843594, 0.26665973041317764, 0.4989318165000579, 2363009000000, 
-0.08130916154870703, 0.0019373633352423088, 0.49888141830311, 2363014000000, 
-0.03825182040173478, 0.15990293304287725, 0.4995795616364146, 2363019000000, 
-0.04525492555446163, 0.29484239673095936, 0.4995713341297541, 2363024000000, 
-0.08485658877881265, 0.033504985340241496, 0.4999649554743205, 2363029000000, 
-0.04783294765116856, 0.15482576520555186, 0.5003751435914526, 2363034000000, 
-0.02406740211416125, 0.26722923715935465, 0.500553484749746, 2363039000000, 
-0.09030569602161496, 0.015999975749314853, 0.5006258250889056, 2363044000000, 
-0.03205773627220519, 0.16178203129991314, 0.5009048543662451, 2363049000000, 
-0.040689709100871524, 0.2743306361760033, 0.5011233792777522, 2363054000000, 
-0.09459705092768124, 0.0055515625825115905, 0.500706219231306, 2363059000000, 
-0.0361065249925234, 0.15832888237912265, 0.5009713600129391, 2363064000000, 
-0.03332198202911014, 0.26403019602802313, 0.5006725213554495, 2363069000000, 
-0.09568596987317124, 0.0031571894216086242, 0.5004049423230206, 2363074000000, 
-0.057814511077752345, 0.1358811494889005, 0.5009939664986539, 2363079000000, 
-0.045466786291670336, 0.12509733673413118, 0.5003523760747511, 2363084000000, 
-0.06040132001192448, 0.13969889585012785, 0.5008344610069522, 2363089000000, 
-0.02893951173172465, 0.26910645191421223, 0.5003875944641499, 2363094000000, 
-0.0846895914956856, 0.023703103556209207, 0.4999613113676307, 2363099000000, 
-0.03566226454084902, 0.17679805274438468, 0.49998661654537907, 2363104000000, 
-0.003139075228648945, 0.26666307883806395, 0.49972088052233277, 2363109000000, 
-0.09919588583636359, 0.005246384053634898, 0.4994687938230117, 2363114000000, 
-0.0305790812490055, 0.15642054213248877, 0.49990299774974767, 2363119000000, 
-0.07106616480487098, 0.3016543621796531, 0.4999833143823863, 2363124000000, 
-0.035240183682640217, 0.011337972738002708, 0.5004539963651026, 2363129000000, 
-0.05172604159796074, 0.175047350759479, 0.50038537061446, 2363134000000, 
-0.08356398265239537, 0.26373333027462387, 0.5005425825171853, 2363139000000, 
-0.06351048984122126, -0.08328020166097438, 0.5008867184334699, 2363144000000, 
-0.030656673842122135, 0.14184128627621892, 0.5013218087790396, 2363149000000, 
-0.14310610891931846, 0.30251705909407933, 0.501469475699676, 2363154000000, 
-0.014539330989991262, -0.0459145702426107, 0.5029500432938999, 2363159000000, 
-0.03691392463350035, 0.1522480254119, 0.5032882069203206, 2363164000000, 
-0.09824965257802781, 0.18308628255224355, 0.5036623366550943, 2363169000000, 
-0.004821705797329047, 0.12270019127082168, 0.5046181149520165, 2363174000000, 
-0.030938123084242434, 0.09559617572563295, 0.5046088564625623, 2363179000000, 
-0.10255470841912499, 0.14907702614157772, 0.5041811358015628, 2363184000000, 
-0.04671130175177031, 0.14949826807386146, 0.5046545316559488, 2363189000000, 
-0.011706039597903152, 0.13647533682079682, 0.5044473900979857, 2363194000000, 
-0.03754921198098234, 0.1358294408172288, 0.503396649446837, 2363199000000, 
-0.06615725011597835, 0.16832979466307402, 0.5030274808862483, 2363205000000, 
-0.030871315604735775, 0.24406651185833905, 0.5021293969822497, 2363210000000, 
-0.09994849204337809, 0.022028244174798664, 0.5012045370590209, 2363215000000, 
-0.0861603150427082, 0.17722022745794921, 0.500795258968258, 2363220000000, 
-0.0161337821889653, 0.29099563160406455, 0.499796630375659, 2363225000000, 
-0.08279815537109779, 0.03634745279378226, 0.4988533962064966, 2363230000000, 
-0.04737839330539664, 0.1843415026180424, 0.49817375405289366, 2363235000000, 
-0.0677963005292718, 0.16471705215955346, 0.49721127358191225, 2363240000000, 
-0.05139754178620058, 0.14222056787773749, 0.4976783976185553, 2363246000000, 
-0.06426550605193043, 0.2691981103348267, 0.4972562583110092, 2363251000000, 
-0.09646305137024458, -0.021410206324247616, 0.4974221481021958, 2363256000000, 
-0.07304584118186737, 0.17894147183338366, 0.49826687381956936, 2363261000000, 
-0.01763370297890151, 0.29791994484999695, 0.49834889816435535, 2363266000000, 
-0.05161873694269447, 0.043524435507164706, 0.49867984495957074, 2363272000000, 
-0.049687189651641823, 0.1424293434516643, 0.4996099329328751, 2363277000000, 
-0.012974835877363335, 0.28014971118066356, 0.5000369652655768, 2363282000000, 
-0.08304646481227516, 0.021116421311744474, 0.5002717574945638, 2363287000000, 
-0.06919374465038947, 0.2758867567273771, 0.5008193481968771, 2363292000000, 
-0.07078289841570051, 0.031065789036199047, 0.5012062500710984, 2363297000000, 
-0.06170361220572969, 0.14227685485090227, 0.501997343742975, 2363302000000, 
0.000727594458100965, 0.30044347841492025, 0.5016341973216375, 2363307000000, 
-0.07808400220654588, 0.019082826949378094, 0.5014192069875775, 2363312000000, 
-0.0583206278451245, 0.16591310458332956, 0.5015783168048751, 2363317000000, 
-0.03538704524592347, 0.2344077410215504, 0.5013069567345285, 2363322000000, 
-0.042051587233677246, 0.08532278764578632, 0.5008896170731536, 2363330000000, 
-0.009764169089155075, 0.23383046940890798, 0.5005934028379995, 2363335000000, 
-0.0845409400665742, 0.06753582267661899, 0.5002646528398944, 2363341000000, 
-0.04163438252740188, 0.22044217714736936, 0.4994515708174913, 2363348000000, 
-0.06606700209642742, 0.06410035179569999, 0.5000637940139563, 2363356000000, 
-0.024878380646005976, 0.24040416625228392, 0.4989486292514333, 2363361000000, 
-0.09474834753526912, 0.02369292840627686, 0.4991052486315357, 2363366000000, 
-0.02962796667298368, 0.2706687184336716, 0.49918680392874665, 2363371000000, 
-0.044193298869709484, 0.16387695206288994, 0.49887111827240815, 2363376000000, 
-0.07942262584156538, 0.03831651938752405, 0.49939035805116266, 2363381000000, 
-0.015282092671104943, 0.3083528271390447, 0.49956721715315244, 2363387000000, 
-0.07404295661815137, 0.030982541769958377, 0.4998483707523077, 2363392000000, 
-0.051474618923992965, 0.12114293046588526, 0.5001536126090249, 2363397000000, 
-0.03555196521614568, 0.2817747498244442, 0.49989421956176366, 2363402000000, 
-0.036136065254912024, 0.14439932476018577, 0.5000814663063304, 2363408000000, 
-0.05762191367795305, 0.08753375551123571, 0.5012844640908461, 2363416000000, 
-0.0608757156105291, 0.1269588975968885, 0.5003868109177811, 2363421000000, 
-0.07030110473906712, 0.1750269377668713, 0.5010825743708092, 2363426000000, 
-0.06531768370491452, 0.24762413324029364, 0.500564983499035, 2363432000000, 
-0.08412164535690776, 0.015621317287811964, 0.5005364376957954, 2363437000000, 
-0.05449574298022658, 0.1542358943703709, 0.5010316610839113, 2363442000000, 
-0.06510604760661785, 0.15462464008821428, 0.50059454039508, 2363447000000, 
-0.038384833307129454, 0.17947812283328463, 0.5004389586947301, 2363452000000, 
-0.06552052237301859, 0.15221985448487235, 0.5007436641066604, 2363458000000, 
-0.0671748092704335, 0.1647056635597336, 0.5002561481039917, 2363463000000, 
-0.032229651486326144, 0.160298272790353, 0.5000449279289284, 2363468000000, 
-0.05103083894071811, 0.2392165354948526, 0.4997962235775211, 2363473000000, 
-0.0719993152279431, -0.007498593725496969, 0.5002628138080538, 2363478000000, 
-0.030038408444650104, 0.1746993530102562, 0.5000876913392936, 2363483000000, 
-0.05323367336453624, 0.28278582500140464, 0.4994758464466437, 2363488000000, 
-0.07343972009864469, 0.01990902681549226, 0.5000285070800948, 2363493000000, 
-0.06628380094951543, 0.15536514764162687, 0.5004983762192083, 2363498000000, 
-0.029022826480241383, 0.2763997203327527, 0.5001839791669226, 2363503000000, 
-0.08670425226724515, 0.03838380994449448, 0.5006520510626622, 2363508000000, 
-0.06275302914129229, 0.15329382206063333, 0.5006417633839534, 2363513000000, 
-0.03172654366760411, 0.2656338731260195, 0.500389392450475, 2363518000000, 
-0.08087601590194257, 0.01896327763584331, 0.5008821700079884, 2363523000000, 
-0.07189969673595446, 0.14399055574018557, 0.5006683832847161, 2363528000000, 
-0.022957838800656265, 0.22057097996043135, 0.500211357620618, 2363533000000, 
-0.07956581417357943, -0.020173483293602638, 0.5001983543147971, 2363538000000, 
-0.028269648548896194, 0.17402908423636, 0.5004894105423223, 2363543000000, 
-0.04428015715458342, 0.18769280258814083, 0.5000359280291443, 2363548000000, 
-0.05970499348774257, -0.003464465245771032, 0.5001736767871946, 2363553000000, 
-0.07899681078918402, 0.17933199247362538, 0.49992250252017156, 2363558000000, 
-0.03654169127810561, 0.3032117957833471, 0.5003678774163937, 2363563000000, 
-0.07618582888780472, 0.013863104011967439, 0.4998820732909613, 2363568000000, 
-0.04024329128337178, 0.17401429373974314, 0.5000510918728455, 2363573000000, 
-0.03223516400474021, 0.2504372767580475, 0.49968832992877477, 2363578000000, 
-0.08367988622200846, 0.06763788153943781, 0.5001267505761675, 2363584000000, 
-0.0652592662765584, 0.21341399772649466, 0.49993072878040357, 2363589000000, 
-0.07645547772692327, -0.013595202091850653, 0.4999717901283683, 2363595000000, 
-0.04573535452882158, 0.11364856880714794, 0.49991456295313685, 2363600000000, 
-0.03177938700921082, 0.2632533539475376, 0.4998737610703677, 2363605000000, 
-0.09033714730887767, 0.02252604539576484, 0.4999669544768082, 2363611000000, 
-0.03657707165410966, 0.2560628248072474, 0.500164241520664, 2363616000000, 
-0.10032937011678308, 0.028995046460663455, 0.5002416747172802, 2363621000000, 
-0.03675754498392898, 0.17424577267050087, 0.5003209896170204, 2363626000000, 
-0.0011818060770179273, 0.28251968475198247, 0.49995331507740176, 2363631000000, 
-0.07130565854670637, -0.019515169708629314, 0.5003035986451437, 2363636000000, 
-0.05225853508767228, 0.2617958334820347, 0.5003116744200292, 2363642000000, 
-0.06807917403058877, 0.13015742272567032, 0.49970862269037614, 2363647000000, 
-0.07463917036854527, 0.05731450126547151, 0.5005272759706989, 2363652000000, 
-0.046031081048682365, 0.23868374732718195, 0.5001928490643355, 2363659000000, 
-0.07168355689961911, -0.00077739827954204, 0.49992962481103287, 2363664000000, 
-0.02499167375822828, 0.15844232159401844, 0.5002332747228146, 2363669000000, 
-0.05039371221904283, 0.31854576155885617, 0.500031595446773, 2363674000000, 
-0.07740966285867594, 0.023931282303971617, 0.49974310949957823, 2363679000000, 
-0.04926446091876362, 0.18953506959498756, 0.5003416573551682, 2363684000000, 
-0.04258187245495816, 0.22216988950014127, 0.499900451463043, 2363691000000, 
-0.09874825628313502, 0.007156935324352609, 0.500149059458455, 2363696000000, 
-0.05419403929281034, 0.16438848244218537, 0.5004138663763877, 2363701000000, 
-0.044331732559578244, 0.15230763410561093, 0.49991924361857754, 2363706000000, 
-0.052997251329751485, 0.13903948750520365, 0.5000378004460756, 2363711000000, 
-0.05069310554822283, 0.17324914975484135, 0.5003697670112671, 2363716000000, 
-0.07349044931489002, 0.10799838313008761, 0.49989369201965844, 2363723000000, 
-0.07370885789051868, 0.17572509443195433, 0.5003132042909966, 2363728000000, 
-0.020801135739125756, 0.3121874721643354, 0.5002168990303445, 2363733000000, 
-0.08728796987407128, -0.02452241302929633, 0.500194097201404, 2363738000000, 
-0.05293097791781388, 0.14967909021222262, 0.5000900525992544, 2363743000000, 
-0.04747965526149216, 0.3068463777873183, 0.4998634010769013, 2363748000000, 
-0.07448513694350775, -0.008931576639405945, 0.499491780444973, 2363753000000, 
-0.026547776056832333, 0.15163136644909958, 0.5003197835082388, 2363758000000, 
-0.05954313742933949, 0.3012306566381815, 0.50015331400209, 2363763000000, 
-0.06315443258511413, 0.035439608841605234, 0.49996125465233043, 2363768000000, 
-0.08183304604434605, 0.17016667422114684, 0.5001508002423782, 2363773000000, 
-0.0644991028444293, 0.29543855974586264, 0.5002121175827158, 2363778000000, 
-0.05571080297305131, -0.04816685584882797, 0.5002608919102625, 2363783000000, 
-0.07076714264332838, 0.1426305265021524, 0.5002967851545883, 2363789000000, 
-0.05828949277743749, 0.1325887873512089, 0.5001171987108923, 2363794000000, 
-0.05347861842647412, 0.12288437996664844, 0.5000469627205847, 2363799000000, 
-0.02674531814119666, 0.29804817232547454, 0.5003468378960706, 2363804000000, 
-0.0828837401869317, -0.019502124485668616, 0.5001089155040707, 2363809000000, 
-0.0758824781064812, 0.13996501123332603, 0.5003882075650757, 2363815000000, 
0.0017630550238543624, 0.40336590460037125, 0.5001195742994958, 2363820000000, 
-0.06714129620940269, 0.05371457431980565, 0.500554149025529, 2363826000000, 
-0.022742090504663477, 0.3470101945174271, 0.5000550690987292, 2363831000000, 
-0.05023799026436887, 0.02283008473983787, 0.5003242066542564, 2363836000000, 
-0.06721992042663058, 0.15342507425748292, 0.500053947953477, 2363841000000, 
-0.034357722726550105, 0.2628858796210452, 0.5001380786329847, 2363847000000, 
-0.0689663767346686, 0.0016830595043461419, 0.5004468772436828, 2363852000000, 
-0.04884417878170136, 0.17041316602872855, 0.5002807185767386, 2363857000000, 
-0.004791549644171618, 0.31397300243966425, 0.49985444399265655, 2363862000000, 
-0.07638984862634494, -0.08385036102734494, 0.5000006410209301, 2363867000000, 
-0.04491116299632136, 0.20162697518208028, 0.5002843501907016, 2363872000000, 
-0.008773703888687898, 0.29296576145844166, 0.49996750294135506, 2363877000000, 
-0.09967636327764953, -0.03850356460785053, 0.49975517836791195, 2363882000000, 
-0.07264431467177318, 0.15079301438336612, 0.49997187352294153, 2363887000000, 
-0.03293074430962547, 0.2673564858834327, 0.4997858763061392, 2363892000000, 
-0.08457781999001562, -0.04521376886618454, 0.5000422483619794, 2363897000000, 
-0.07440301211772389, 0.19180050776881424, 0.5002438900768409, 2363902000000, 
-0.026145342527699334, 0.30936325646756924, 0.5001121884147003, 2363907000000, 
-0.08668071213445874, -0.012741736406043841, 0.5003382978679073, 2363913000000, 
-0.05647808971909271, 0.15280584745892242, 0.5006022954087055, 2363918000000, 
-0.0335878097064255, 0.2610593498758472, 0.49976781856666863, 2363923000000, 
-0.10255399917440204, -0.0785854235791288, 0.5000108545354813, 2363928000000, 
-0.04853824501070624, 0.15958331824659652, 0.5004823532106533, 2363933000000, 
-0.059749722368387194, 0.15993406350959183, 0.49990262267723967, 2363938000000, 
-0.026981169120433204, 0.14081024085138855, 0.49998108716053086, 2363945000000, 
-0.020160483911353933, 0.30706207385357626, 0.49988914861363865, 2363950000000, 
-0.05763927576224169, -0.007889495656888847, 0.5000623030483955, 2363955000000, 
-0.06513812243298936, 0.19181695294034712, 0.5002914378163895, 2363960000000, 
-0.04301260249771409, 0.3451331664222198, 0.49971585378939615, 2363965000000, 
-0.05478650459080177, 0.024628466939481286, 0.5004134021116253, 2363970000000, 
-0.06206927032821859, 0.1607912631018293, 0.5001588063182779, 2363975000000, 
-0.07655391932114868, 0.14029074570972638, 0.4999634112669787, 2363980000000, 
-0.06009470205275441, 0.18336571481784192, 0.49996817327773946, 2363985000000, 
-0.07494563903814701, 0.13549274019945676, 0.5000531363820481, 2363991000000, 
-0.05544379337822739, 0.1685111123400919, 0.5002142291212203, 2363996000000, 
-0.012420181183067374, 0.34518335517879295, 0.5004073174150496, 2364003000000, 
-0.091887485474552, 0.0532943058542556, 0.5003861591780315, 2364008000000, 
-0.006622077519116441, 0.318000844355209, 0.5001658065485297, 2364013000000, 
-0.06940725813364901, -0.003010644104253114, 0.5001137992198824, 2364018000000, 
-0.044236040887565636, 0.14117209656861263, 0.5000904681163523, 2364023000000, 
-0.023308094950132387, 0.27743818125458, 0.4996887022854469, 2364028000000, 
-0.09650804909679497, -0.07363607532218837, 0.49996473560204097, 2364033000000, 
-0.05605505591477173, 0.28598132632054013, 0.5000414318900791, 2364038000000, 
-0.025712376474056966, 0.16910738424357452, 0.49967030366674614, 2364043000000, 
-0.11256525686743882, -0.07493462155991805, 0.5002338211187088, 2364048000000, 
-0.04989866622658107, 0.29976129172113036, 0.5003954564809492, 2364053000000, 
-0.04222091194401052, 0.15762909685379667, 0.49971407443554056, 2364058000000, 
-0.09195851622957102, -0.004029187702080982, 0.5002003258003561, 2364063000000, 
-0.018160967697696588, 0.31271981407977323, 0.49975910778699667, 2364068000000, 
-0.10267773048303495, -0.0362523893666013, 0.49983495524712135, 2364073000000, 
-0.05333294074369553, 0.15330529253526162, 0.5000462014400263, 2364078000000, 
-0.03926654488278441, 0.28614939040670606, 0.4999949933095391, 2364083000000, 
-0.08513940473463448, 0.01992887255751987, 0.5007130033171836, 2364088000000, 
-0.06797704023470165, 0.17641454716168678, 0.5005355952499929, 2364093000000, 
-0.02352963947380761, 0.3276968659272675, 0.49975525643542984, 2364098000000, 
-0.06867411946179472, 0.00380566713112895, 0.5005721618768614, 2364105000000, 
-0.047461227099865465, 0.16761020177304956, 0.5005264078682159, 2364112000000, 
-0.047953905932890194, 0.14368500943110812, 0.5000181669889083, 2364118000000, 
-0.035085793681435336, 0.2637731009605077, 0.5001564162269033, 2364124000000, 
-0.0848238767796478, 0.011119729834174405, 0.5002822921497985, 2364130000000, 
-0.0391598249052829, 0.18160224635526606, 0.5003481057760285, 2364135000000, 
-0.025304577760316235, 0.30989129586010367, 0.4996141679525297, 2364140000000, 
-0.1034691644231224, 0.0028462314964240194, 0.5003199795261907, 2364145000000, 
-0.05929917979959978, 0.20384524203381596, 0.5004313766385178, 2364151000000, 
-0.05130229559734479, 0.1653335215679261, 0.5002135618786117, 2364156000000, 
-0.03192193015159735, 0.12506476606631953, 0.500281233912321, 2364161000000, 
-0.01621624074979643, 0.3180172598735828, 0.5000594372543721, 2364166000000, 
-0.11478634669257753, -0.08319799409358875, 0.4998345650676678, 2364171000000, 
-0.08253930336278877, 0.16541073030437667, 0.500115246209978, 2364176000000, 
-0.029895397654653332, 0.34238044427689923, 0.5007226941459811, 2364181000000, 
-0.09045590379193091, -0.017293237364431183, 0.4999030136657266, 2364186000000, 
-0.05524704676924827, 0.1715707931037981, 0.5003477968557535, 2364191000000, 
-0.006259076041993955, 0.3151886415256412, 0.5006039931074533, 2364196000000, 
-0.11240904174950246, -0.04846633426331722, 0.499955637717201, 2364201000000, 
-0.036100695106593535, 0.16775359639462167, 0.4999249179860971, 2364206000000, 
-0.03871020899905907, 0.17542079321562426, 0.5004044450199457, 2364211000000, 
-0.1307291365632202, 0.15879347076754172, 0.5006403947132284, 2364216000000, 
-0.02358321477018777, 0.14665003034585344, 0.5007872087568378, 2364221000000, 
-0.015582549775071047, 0.19387236795348362, 0.5012599998335304, 2364226000000, 
-0.057302272477300284, 0.33933078746341266, 0.5014912495987954, 2364231000000, 
-0.10614348335769586, -0.041421684237375085, 0.5017036995930967, 2364236000000, 
-0.04386379746382187, 0.1522662988925563, 0.5028068258690722, 2364241000000, 
-0.03309838855032519, 0.3119383665209151, 0.5025065133301827, 2364246000000, 
-0.11752201659495227, -0.01776590719021271, 0.5027010437506088, 2364251000000, 
-0.052771381526372896, 0.15181242970288364, 0.5030267709326889, 2364256000000, 
0.01366889640739518, 0.3005643026567685, 0.5025155210560055, 2364261000000, 
-0.1217699087316759, -0.013639155962614752, 0.5022324626934747, 2364266000000, 
-0.025860816462170415, 0.1497354046034375, 0.5020924004593469, 2364271000000, 
-0.0851521754847439, 0.1409969527506826, 0.5015803470151372, 2364276000000, 
-0.05957502360798667, 0.13022296744208767, 0.5008801514936823, 2364281000000, 
-0.04828712822457489, 0.16203396246289214, 0.5009568623889881, 2364286000000, 
-0.025737557171890267, 0.17509203706251686, 0.4995314776119281, 2364291000000, 
-0.059604318369053826, 0.12299564772358325, 0.49906464234591097, 2364296000000, 
0.0032835240117704513, 0.34376567243205014, 0.498978534919492, 2364301000000, 
-0.14488960187375044, -0.06967317025086593, 0.4989056672202488, 2364306000000, 
-0.038916819372805084, 0.15619733730124088, 0.4983718905592603, 2364311000000, 
0.021721473284809122, 0.33783773605253276, 0.49852846694420383, 2364316000000, 
-0.1421394932655502, -0.06383170259996157, 0.4985218985885206, 2364323000000, 
0.002760542957155213, 0.25885284223778576, 0.4988155020436228, 2364328000000, 
-0.14758830552219804, -0.11015386896268817, 0.49854612395897663, 2364335000000, 
-0.040783212045555836, 0.1904298041565048, 0.4997415887950619, 2364340000000, 
-0.07672435675150589, 0.1705257321702757, 0.49930924704064744, 2364347000000, 
-0.04556463927510782, 0.154792854347926, 0.5004025557120212, 2364352000000, 
0.03946193673388522, 0.33832984833706026, 0.5005305313579234, 2364359000000, 
-0.1284325912611836, -0.015784584246048245, 0.5006198757988916, 2364364000000, 
-0.034263993858638056, 0.1564298280065162, 0.5013137493639951, 2364369000000, 
-0.05008681460818279, 0.16154557623720636, 0.5007613690907717, 2364374000000, 
-0.10292784145621743, 0.11088366535714121, 0.5010174833436399, 2364379000000, 
0.04000539124487459, 0.3295059728227251, 0.5009379780177408, 2364384000000, 
-0.12062723427407895, -0.05473571762989693, 0.5006213130597414, 2364389000000, 
-0.042279056408945304, 0.1455855872568958, 0.501049160881109, 2364394000000, 
0.058958937756687986, 0.38422464115310534, 0.5001171090885619, 2364399000000, 
-0.16725906864775292, -0.07023079476284637, 0.5002582417049856, 2364404000000, 
0.00457006171838899, 0.27110098488151463, 0.4998093754273952, 2364412000000, 
-0.20625206853935854, -0.09028128633656715, 0.4997834648821835, 2364417000000, 
-0.06539563032772676, 0.15558422055517818, 0.5001586257196867, 2364422000000, 
-0.044318088689836777, 0.1392415338956402, 0.4990791521474597, 2364428000000, 
-0.03907997104473995, 0.18376791870535614, 0.4999281300658672, 2364433000000, 
0.04880594408120846, 0.33900939231351884, 0.4995492098408455, 2364438000000, 
-0.18661293978900034, -0.08861194973089007, 0.4992855949829285, 2364443000000, 
-0.05108112947836459, 0.14576245423684236, 0.49956863727157735, 2364448000000, 
0.07762951432137857, 0.41360198841665274, 0.49950388863787637, 2364453000000, 
-0.12377725592892128, 0.006096349676560749, 0.4996400302645441, 2364458000000, 
0.04677514519715506, 0.3399710637400887, 0.4996722018747613, 2364463000000, 
-0.14042971428613454, -0.0414767481408835, 0.5000591046212745, 2364468000000, 
-0.03278938326747123, 0.18796419401304704, 0.5004560539057386, 2364473000000, 
0.016618662227540923, 0.37396759471572877, 0.5003863700791141, 2364478000000, 
-0.1539757046768747, -0.06763083775995107, 0.5004057830813847, 2364483000000, 
-0.06926654184876291, 0.18066942496885868, 0.5005539582585408, 2364488000000, 
-0.03140631205942661, 0.19287967133657227, 0.5003888347722466, 2364493000000, 
-0.06420228241461716, 0.10909514787592317, 0.5007561313301785, 2364498000000, 
0.061215201701765504, 0.37405526482877943, 0.5010235890332119, 2364503000000, 
-0.12905228313769856, -0.0661538678193797, 0.49989354110282824, 2364508000000, 
-0.07703293091400269, 0.1394195685117651, 0.5001117778847165, 2364513000000, 
-0.046897814524744626, 0.15906829488049737, 0.5006059063121999, 2364518000000, 
0.01237564456530899, 0.28787131918160425, 0.5001437382038656, 2364523000000, 
-0.11175035113534834, -0.0008581449168058742, 0.5005064133665261, 2364528000000, 
0.0030327159508449324, 0.2969568010343565, 0.500199380665331, 2364533000000, 
-0.12569629798510815, -0.03211474882494718, 0.4999948061585324, 2364538000000, 
-0.068421008792062, 0.15932303076659818, 0.5004403964899731, 2364543000000, 
-0.04551931982754646, 0.16516302487229703, 0.5000212724909822, 2364548000000, 
-0.050360881486197606, 0.13662283427594507, 0.5001244592336701, 2364553000000, 
-0.05840693624027537, 0.17107555452086798, 0.5002902429320126, 2364558000000, 
-0.0673554022542362, 0.15468673231983163, 0.4996252067753917, 2364563000000, 
-0.036360531850160416, 0.12232033470089071, 0.5001649989518421, 2364568000000, 
-0.03824936325589003, 0.14900607810204175, 0.5000083758355869, 2364573000000, 
-0.05718900076142403, 0.15409573722486047, 0.4995279972629043, 2364578000000, 
-0.0883041623234054, 0.14660513644985154, 0.5000488805043034, 2364583000000, 
0.02214727551629131, 0.28336313341473335, 0.5004453170013119, 2364589000000, 
-0.1071083862326456, -0.07894894661798228, 0.4996749955624293, 2364594000000, 
-0.03521865446110517, 0.1088095142943825, 0.5002932954759207, 2364599000000, 
-0.001401482127611195, 0.32612748795304175, 0.5003869176877933, 2364604000000, 
-0.17601809497541088, -0.09117294096489433, 0.5004407132667518, 2364609000000, 
-0.0461882792558961, 0.16760703219209486, 0.5004842850019965, 2364614000000, 
-0.07238028605702962, 0.13359268450874598, 0.5001146521965756, 2364619000000, 
-0.07508631616391698, 0.16572413104751785, 0.500272248182535, 2364624000000, 
0.01168534205057567, 0.2814267491981519, 0.4998108066581243, 2364629000000, 
-0.15294975509437078, -0.09152550977710025, 0.5002784987838128, 2364634000000, 
-0.0480913123021184, 0.12093632441046209, 0.5004323901402616, 2364639000000, 
-0.02223796484706242, 0.2856292486914355, 0.49996830325440006, 2364647000000, 
-0.1069886351135396, -0.02012639710205497, 0.49989736747757263, 2364652000000, 
-0.03602992542898395, 0.1671903447943502, 0.5000214673544177, 2364657000000, 
-0.07511400892625236, 0.11877170982924654, 0.4998183337427204, 2364663000000, 
-0.02142797655815629, 0.16455504075263375, 0.5000025880946422, 2364675000000, 
-0.1025973332957861, 0.13747999699019187, 0.4999930145906433, 2364680000000, 
-0.0007126538092038712, 0.3288363883685975, 0.49976712192417017, 2364685000000, 
-0.1455299455365884, -0.03462791906548336, 0.4998840868777307, 2364691000000, 
-0.05438684099117514, 0.16206313716758033, 0.5003873248930012, 2364696000000, 
-0.05413972257660619, 0.1526127383914414, 0.49997023287110487, 2364701000000, 
-0.07482603570751567, 0.11691426136135596, 0.5001449937687183, 2364706000000, 
-0.06459714036772272, 0.17800511609344052, 0.5002009273140957, 2364711000000, 
-0.0798244986854467, 0.13527836166412363, 0.49986046494007536, 2364717000000, 
-0.08268734701045606, 0.18381131368590464, 0.5000581194492861, 2364722000000, 
0.013590609789061014, 0.36755713389584915, 0.5006770524799845, 2364727000000, 
-0.1411946234371355, -0.02562685317382179, 0.5001084890203855, 2364732000000, 
-0.06492627235426084, 0.15917756328979996, 0.5002132608480893, 2364737000000, 
0.03181948217774479, 0.3410247855967389, 0.49986847674546947, 2364742000000, 
-0.142038152418437, -0.050824444219917886, 0.500186234887546, 2364747000000, 
-0.05487834363704518, 0.17389231845003078, 0.5005476711183703, 2364752000000, 
0.02734472578979033, 0.34118649459747763, 0.4999452576196167, 2364757000000, 
-0.12677848278157275, -0.09233291031885776, 0.4999198458911209, 2364762000000, 
-0.06411401885017619, 0.159015627946777, 0.500569137023669, 2364767000000, 
-0.0740942671786397, 0.13909256900203334, 0.4999724751301809, 2364774000000, 
-0.06107544322337273, 0.13662194638893482, 0.5002176136234086, 2364779000000, 
-0.0019680555712197553, 0.35992249645680696, 0.4999903069612576, 2364784000000, 
-0.1292998039892364, 0.014044822983072084, 0.5000998837251357, 2364791000000, 
0.0009010534122786524, 0.3205670497336109, 0.5001569840045144, 2364796000000, 
-0.1204096338097569, 0.009963606761619889, 0.5000376144315861, 2364801000000, 
-0.08082476765609567, 0.11778939933803016, 0.500410677179531, 2364806000000, 
