acc_x, acc_y, angular_z, stamp, 
-0.09685794329263137, -0.0012725890368213322, -9.45460807515264e-05, 29959000000, 
-0.048355359595936113, -0.005769592816854659, 4.7979202118731456e-05, 29964000000, 
-0.05492567970980896, -0.029461520477198244, 0.00017225584540346778, 29969000000, 
-0.0702084200338543, 0.003675762495441557, -0.00035274223020220205, 29975000000, 
-0.046568533947080624, 0.009173858077625711, 0.00010102829626134667, 29979000000, 
-0.07435706433289255, -0.01844759931491208, 0.0001125187671380014, 29984000000, 
-0.057066509816445114, 0.015896040605212793, -1.1050608092845191e-05, 29990000000, 
-0.03261477794616832, 0.010494564057847558, -0.0003340541264691423, 29995000000, 
-0.07350406423710801, 0.010459506584491473, -0.00040649362963754475, 30000000000, 
-0.053579713351646185, -0.004728931136963201, -0.00015567807131743635, 30005000000, 
-0.05469560191266856, 0.004967242909953655, -0.0001339825304124373, 30011000000, 
-0.0166786154326055, 0.005142239748290701, -0.0002390657465030735, 30016000000, 
-0.03877002970861387, -0.030259180818365716, -0.0001333775556513272, 30021000000, 
-0.056103881628484474, 0.015281569510691694, -0.00012011285904280337, 30026000000, 
-0.08575517788129419, -0.011873365445550767, -0.00021925635223358684, 30031000000, 
-0.048085560801300074, -0.03158021492038986, 2.47412860476259e-05, 30036000000, 
-0.07341934815398, 0.01329703120163247, 0.0002904682643231941, 30041000000, 
-0.031131965396742577, 0.0021388343031438577, -9.574230571408147e-05, 30050000000, 
-0.033476515644697835, -0.012916130220837192, 0.00016286273011353056, 30055000000, 
6.815615451878421, 0.0005672658212163327, 0.00015152140231666731, 30060000000, 
-0.16664223781928045, -0.006042348388373121, -0.00031206514608977536, 30065000000, 
-0.001065313581762659, 0.012369300559202314, -0.00011022409924269624, 30070000000, 
-0.1297890824399504, 0.007829438362016796, -3.852358478680307e-05, 30076000000, 
-0.08532711334146767, -0.01970862593469141, 0.0002573232672616414, 30081000000, 
-0.03946351184872306, 0.030061220148314652, 0.00012573465865205343, 30088000000, 
14.183353870413512, 0.024055447961725145, -0.00024528937325975767, 30093000000, 
1.2437841703399612, -0.008575768994282265, 3.3231306814749524e-05, 30098000000, 
-0.07144518833571917, -0.01954291899979325, -0.00016587501841743496, 30103000000, 
-0.18703639911695624, -0.022014234181148624, -0.000214421764107356, 30108000000, 
-0.05218697855210679, 0.013653130752431603, -0.0001425046893563826, 30114000000, 
-0.04946235961374988, -0.0034885526326200625, -0.0001162838256001121, 30119000000, 
-0.06376010772695476, -0.00632369778914948, -0.0002686478583045482, 30124000000, 
4.318424446861502, -0.003857213136540946, 5.2866593015002926e-05, 30129000000, 
-0.17395588508192408, -0.004250849043150514, -0.00023962279369991362, 30134000000, 
-0.09207494684635827, -0.010802322807434024, -0.0002837509563161336, 30139000000, 
-0.0662228527654657, -0.005429914079858628, -0.00011799094370438918, 30144000000, 
-0.06200359639989776, -0.001625139606833327, 0.00026087978482606427, 30150000000, 
-0.05302932354958094, 0.012678455953213583, 0.0002828444416948389, 30155000000, 
0.28991338573099884, 0.0006682330338701804, 2.268117111177596e-05, 30160000000, 
-0.07391575422881996, 0.018441513290283717, -0.00012649031010135068, 30165000000, 
-0.011406084138717076, 0.007903484866052895, 9.542930621407863e-05, 30170000000, 
-0.013652198773165015, 0.0012096447807310978, 0.000273584291303798, 30175000000, 
-0.03580736534356928, -0.004074653909375235, 0.00018436964003579109, 30180000000, 
-0.07893520301669692, -0.0007757772893407246, 1.9507708880062196e-05, 30186000000, 
-0.05726325201332893, -0.007440120161146218, -0.00021217046968831723, 30191000000, 
-0.06364926407931168, 0.0021013337873819994, 0.00013245632419655698, 30196000000, 
0.17386498259988148, 0.008695464680805018, 0.00023717587002725427, 30201000000, 
-0.05209679459683339, -0.024572784962851302, -0.00022605093100324885, 30208000000, 
-0.04545395973435782, 0.00731973593363398, 7.760169317120024e-06, 30213000000, 
-0.018855410577791058, 0.005229603129674027, -0.0002084691556364829, 30218000000, 
-0.07664758624819433, -0.0017526596821907387, -0.00030085838841560544, 30223000000, 
-0.05958923859031707, -0.024343450851130786, 0.00019257900356969113, 30228000000, 
-0.04561188117314038, -0.010403837443664445, 8.70651340371992e-06, 30238000000, 
-0.055118753009978635, -0.009662886029729655, -0.00010026944467693149, 30243000000, 
-0.05044052834592984, 0.005958190773713297, -0.00013607833431663482, 30248000000, 
-0.05602801687582052, 0.016317795770700142, 0.00012866200276039636, 30254000000, 
-0.050965817560221824, -0.0339565300359285, 0.00016914553570032204, 30259000000, 
0.2539899763868165, 0.011518466883599386, -4.459707367827212e-05, 30266000000, 
-0.04123877325206503, -0.03867423999166843, -5.388600042240302e-06, 30271000000, 
-0.04658450696260216, 0.01554123276449764, 0.00029115267419961436, 30276000000, 
-0.029656403079860092, 0.005608927944316878, 0.00035520536185357823, 30282000000, 
-0.04490755692971434, -0.0009888511277922763, 0.00022350017898144169, 30287000000, 
-0.030283297311724803, -5.858631600980937e-05, 0.00024857969323611485, 30292000000, 
-0.04211097358032054, -0.020942391018674573, 2.218353060555738e-05, 30300000000, 
-0.061165612498887384, 0.005540193653663087, 0.00015199758114516507, 30305000000, 
-0.030529718087130283, -0.029800330561991085, -2.211016164188629e-05, 30310000000, 
-0.054910073201697523, -0.01444767631721518, -0.00015327988560952547, 30315000000, 
-0.057547125575707014, -0.019795139001875416, 0.00041020374749242624, 30321000000, 
-0.06956026276608458, -0.002373786347015472, 0.0002235998644278561, 30326000000, 
0.3452852855924502, -0.009175619040961926, -3.122787765453465e-05, 30331000000, 
-0.07254292633186529, 0.013640054573040402, 0.00041059175428881487, 30337000000, 
-0.06956268444705428, 0.02250134555294636, 0.00011759515579698289, 30342000000, 
-0.047143272755153905, -0.007569002766446151, 0.00010646464573302623, 30347000000, 
-0.027461025395229106, -0.005541436076695027, -2.374104470976003e-05, 30352000000, 
-0.031698785405559815, 0.010985017530988671, -2.5391476546222915e-05, 30357000000, 
-0.04274330152088835, 0.006515531108156965, 2.2680345877960583e-05, 30362000000, 
-0.02940037323841741, 0.0008272818031030639, 0.00021737555682077223, 30367000000, 
-0.02364186744236586, 0.010282086146844033, 7.509300040449588e-05, 30373000000, 
-0.043502632042705554, -0.011395494292306409, 0.00019110477601392683, 30378000000, 
-0.07052498313439179, 0.014655289438599919, -5.031023472601503e-05, 30383000000, 
-0.034617448992522525, -0.007190803610288266, -5.057046414590836e-05, 30388000000, 
-0.062415212793322114, 0.045386859335014726, 0.00016983882585870733, 30393000000, 
0.343500366868085, -0.004873271080106037, 0.00015509873017866075, 30398000000, 
-0.010764668750083153, -0.01442520611653439, -9.018377718132498e-05, 30403000000, 
-0.06615776923893624, -0.015645249510609267, 8.154998644132808e-05, 30408000000, 
-0.03337406120867725, 0.005624960455528747, -0.00016277152410703818, 30413000000, 
-0.07174618968302247, 0.0036693677503722524, -0.00011259213850351556, 30418000000, 
-0.02749941345835286, -0.019959525377355732, 0.00031174759141933454, 30423000000, 
-0.024836721765858334, -0.0003111889435928483, -2.7610318823230398e-05, 30430000000, 
0.3488394286167314, 0.026367385273514496, -0.0003642198216816888, 30435000000, 
-0.07621632950445366, 0.011288953215422249, -0.00030850166808475937, 30440000000, 
-0.025243997199493447, 0.002469076332918091, -0.00018128399113868262, 30446000000, 
-0.0754885026216748, 0.03406834787559907, 0.00036381251507365883, 30451000000, 
-0.039754816649356095, -0.022380503141535366, -0.00017721997449839786, 30456000000, 
-0.03349863109464763, -0.0020380464973089683, 0.0002448230223820858, 30461000000, 
-0.03321069786137051, -0.024980813219151632, -0.0003587334874684636, 30466000000, 
-0.03523493700574959, 0.015701089930520027, -0.00019825843185497668, 30471000000, 
-0.07006815042737212, 0.0029648200449237374, 0.0003364891857352688, 30476000000, 
-0.06471392603533037, 0.012513834682774594, -0.0001328695186893687, 30481000000, 
-0.05681684842556907, 0.011012795985850516, 3.8297430228159626e-05, 30487000000, 
-0.05825730606138908, 0.012079034768276556, -0.0001231009946398001, 30492000000, 
-0.03562197173924171, -0.023854736961603996, -0.00023005689595761707, 30497000000, 
0.44377094862006766, 0.01647105566632578, -0.0001322833103221023, 30502000000, 
-0.07268403317585648, -0.017053434272584902, 0.0002981823200343199, 30507000000, 
-0.05289448838035299, 0.00010125239713849952, -0.0001297314167352771, 30512000000, 
-0.052566827068290176, 0.001710662463248478, -5.408865742657919e-05, 30517000000, 
-0.044883513069095014, 0.005873681643395111, 9.942318383954105e-06, 30522000000, 
-0.06469989947880211, -0.02160366165385394, -0.00020496377415436578, 30527000000, 
-0.04071093792278248, 0.01901630796850131, 0.0003396612747320005, 30532000000, 
-0.06429153958136857, -0.014236524938979674, 3.6831946792384504e-05, 30537000000, 
-0.05150774577534986, 0.007588280609578569, -1.0573935665982199e-05, 30542000000, 
-0.03775161109434222, 0.009425810181312355, 0.0001452456434018502, 30549000000, 
-0.02819724515699983, -0.01650722290064173, -0.00023331397640930624, 30554000000, 
-0.05404281266900534, 0.008309030781499223, 0.0003903754326342355, 30559000000, 
-0.028643029374240136, -0.023693926231681758, -0.0002608088172117433, 30564000000, 
0.37320149797443924, 0.02341925997185304, 0.00015709244230084445, 30569000000, 
-0.06287081387386133, -0.025048617674248184, -2.3003949754238136e-05, 30574000000, 
-0.06102101238915978, 0.008582467269910377, 0.00024756171558626015, 30579000000, 
-0.053742306293944116, -0.015152847779066846, -0.00015010225771881986, 30584000000, 
-0.033455004065767055, -0.012676833352837272, -0.00010406175711512945, 30589000000, 
-0.06843772618065386, 0.022312591392713525, 0.00013337878980019453, 30594000000, 
-0.049533015515738944, 0.015870554462555368, 9.18375892909369e-05, 30599000000, 
-0.053709655943606785, 0.038772860724394384, 0.00023102069151668467, 30604000000, 
-0.052657842299311, -0.0385631477436406, 0.00018393264859929974, 30609000000, 
0.03475698647561731, 0.005254450992844451, 7.998087031439002e-06, 30614000000, 
-0.10875444815009823, -0.00244458506665767, 4.4000721533313436e-05, 30619000000, 
-0.052123929706254, 0.01691793880565176, 0.00016614602444380475, 30624000000, 
0.04391461840473146, 0.0022611713983768517, 0.00012090964849103236, 30629000000, 
-0.14169523385710675, 0.0094078490143861, -0.00011332800777820878, 30636000000, 
-0.018377984095364445, -0.012485434085381454, -9.372490202702393e-05, 30642000000, 
-0.12628358424912522, -0.004705001292337798, 4.044762954984556e-05, 30647000000, 
-0.06302056699183628, -0.01581777570709441, -0.00024504143668547005, 30654000000, 
0.03637963828820844, -0.03588293413109561, -0.00033476454707743965, 30659000000, 
-0.18211069053453927, -0.011814024469726847, -4.921569916563985e-05, 30664000000, 
0.3093200434156334, 0.008155940727801835, 1.4597402794020812e-05, 30669000000, 
-0.04155813107890165, 0.043716852966952456, 0.00011689327781206507, 30675000000, 
0.04856865294047892, 0.012663876915249811, 0.00021866855560759594, 30679000000, 
-0.03921429926421204, -0.007659271755423427, -0.00017702557239942694, 30684000000, 
-0.17293788576411565, 0.01853683132697162, 0.00010099387991321008, 30689000000, 
0.02086584260575286, 0.019651757241181466, -0.00010143207523310004, 30696000000, 
-0.1631919178221022, -0.018993494458256682, 0.00017450959972189906, 30701000000, 
0.028770250185252175, -0.0008105979922349458, -6.92204813158024e-06, 30706000000, 
-0.04096652917483779, 0.0032243048820651396, -0.0005647611265757876, 30711000000, 
-0.16451625370909798, 0.004093211573486308, -0.0001065890065930652, 30716000000, 
0.04772584443053782, -0.015993152441483846, 0.00010028513519997045, 30721000000, 
-0.012231878830308969, -0.035043086531410805, -0.000330796879201568, 30726000000, 
-0.06782139091302658, 0.009889949301660577, -9.457628473423815e-05, 30731000000, 
-0.119141232062794, 0.01632186517266325, 4.7193862882799305e-05, 30736000000, 
0.48058602014175406, 0.0007567268176661494, -0.0001818211189626498, 30741000000, 
-0.0733560711805209, -0.017686969854590534, -8.389555864755898e-05, 30747000000, 
-0.1522073185268143, -0.006231674701504564, -0.00031970917851085714, 30752000000, 
0.054748469790277574, -0.010200789715920115, 6.782496166853923e-05, 30757000000, 
-0.13931697703755413, 0.019585458118108922, -0.0002724504454096217, 30764000000, 
0.13294123795153517, 0.009111115575513813, -0.00014434019682296604, 30769000000, 
-0.0520275923850998, -0.015908697742180837, 7.97914295021737e-05, 30774000000, 
-0.1040897626071463, 0.004293639561023423, 0.00015147237947173996, 30779000000, 
0.05349521934469429, 0.0062358998860639414, 0.00034497862770017224, 30784000000, 
-0.08494675552861809, -0.04370869861601144, 5.1919112981686956e-05, 30790000000, 
-0.18230648662185298, 0.002260001138650147, -0.0003306063401942276, 30795000000, 
0.06561246239235707, 0.012406754155242493, 0.00010128033180922679, 30800000000, 
0.2613631722825718, -0.006632540016009228, 0.00014853784480337446, 30805000000, 
-0.07477352663779199, 0.019599141411443786, -0.00014372864389140057, 30813000000, 
0.01509865201014211, -0.012574170188949567, 0.00012392875456773792, 30822000000, 
-0.15020227676356018, -0.019630535521551244, -4.243906290857233e-05, 30828000000, 
0.04086592490969633, -0.02506427063203649, 9.519286715532645e-05, 30833000000, 
-0.0473556722116413, 0.009877582452714095, 6.202168759871297e-05, 30838000000, 
-0.15694212710649014, 0.020966682199730125, 3.7054236039477075e-05, 30843000000, 
0.006821086329104414, -0.014109090731214503, 3.577462754394383e-05, 30848000000, 
-0.1777192795160793, 0.0026379010793776522, 0.00020793200796933992, 30854000000, 
0.04759822664020563, -0.0056988279900057216, -0.00030982685799053547, 30859000000, 
-0.15752323595722476, 0.019900842997522976, -0.00013172345052842383, 30864000000, 
-0.012817680537438623, -0.014265111633235877, 0.00017970805711113645, 30870000000, 
0.420923800263403, -0.028068015065491322, -0.00012355120508060526, 30875000000, 
-0.19548351631160446, -0.007670855871113939, 0.00019817044539207243, 30880000000, 
0.04983307856721918, 0.0016909478268590963, 0.00036904354511631374, 30885000000, 
-0.14208900454000856, 0.014707628687623243, -9.082445943590284e-05, 30893000000, 
0.027702877548803944, -0.023203297464589663, 0.0004192410431994701, 30898000000, 
-0.04146493216205697, 0.009272498961425117, -0.00029125776742921204, 30903000000, 
-0.146717257966838, 0.010220809958182515, 3.9142202420529054e-05, 30908000000, 
0.0805758870093956, -0.027219755541366165, 4.666368782251707e-05, 30913000000, 
-0.14324685719674382, 0.009448606570120987, 0.00024045663688253394, 30918000000, 
0.03348301181347391, 0.01776791202163864, -8.846770443365162e-05, 30923000000, 
-0.05890956121648826, 0.01361097167866115, 0.00025742195839046413, 30928000000, 
-0.1365428503220178, -0.00149617286042697, -0.0003668645511050974, 30933000000, 
-0.040098171669553734, 0.029009603337270103, 0.00021778526896308037, 30938000000, 
0.21987672154211518, 0.004957146347195981, 8.077475378012352e-05, 30945000000, 
-0.04416950998502665, 0.005422837036420862, 0.00013797240182859916, 30950000000, 
-0.03699413675499173, -0.021514317478069006, -0.00013623953250274225, 30955000000, 
-0.06776233451260273, 0.03245753671909741, 0.00019878328234212538, 30960000000, 
-0.055248499813572244, -0.021084042929058473, -4.732774652097135e-05, 30965000000, 
-0.061188699615839184, -0.003341897091475195, 5.265407197514824e-05, 30970000000, 
-0.042294548425823364, 0.021103012952976775, 6.553168021844833e-05, 30976000000, 
-0.04452371725107944, -0.010620549431846368, 0.0001245154391977323, 30986000000, 
-0.04012293342918853, 0.016554805080551124, 4.2455302590604346e-05, 30991000000, 
-0.034633406620171184, -0.002071518236275406, 0.0002579480735518627, 30999000000, 
-0.04717035809173603, -0.005496502365470185, 2.6573101789998235e-06, 31004000000, 
0.27378987478801287, -0.01805770023907277, 8.694338506056657e-05, 31009000000, 
0.05284121951143881, 0.011207365389068972, 0.00012166367492717309, 31014000000, 
-0.08065068329777351, -0.009176827301438236, -8.993353954464944e-05, 31019000000, 
-0.06953915425912857, 0.0077232219778572975, 0.00019388209244099294, 31024000000, 
-0.07442219636350127, 0.00559002509889871, 4.0372643166140686e-05, 31029000000, 
-0.04109159894824972, -0.0044106040813816855, 8.913430559494767e-05, 31034000000, 
-0.06771854116255556, -0.018005818444724955, -0.00020185351839731658, 31039000000, 
-0.08700929947025088, -0.02539329184491224, 0.00015100877494652004, 31044000000, 
-0.025583554044224063, 0.009800666260236502, 0.00018930384985326004, 31049000000, 
-0.0552191476475803, -0.0005723011329949901, -0.0003077571200251119, 31055000000, 
-0.05216756110842555, -0.03616934580520408, -5.6559497019603105e-05, 31060000000, 
-0.07483820542763733, 0.012508224376540254, 0.00016595942842647182, 31066000000, 
-0.06829798055548303, -0.003111876661951506, 0.00021647570321825076, 31071000000, 
-0.048286622182887845, 0.02653457581202412, -0.00013040715597317716, 31076000000, 
-0.027614784827111303, -0.022960889788613756, -1.4585690161261821e-05, 31081000000, 
-0.057452634401991755, -0.008010933756776587, 0.00015125984564327177, 31086000000, 
-0.08124617153670963, -0.004401544265459746, -0.00011221979370384656, 31091000000, 
-0.08599799470442872, -0.006472202956274319, 0.00010455811148051553, 31097000000, 
-0.08637404776530945, -0.006089016640615016, 8.272919199976723e-05, 31103000000, 
-0.04579894686905838, 0.00948684997044485, 5.299206815757908e-05, 31108000000, 
0.24085814787003668, -0.007920222273649032, -7.714680038668184e-05, 31114000000, 
-0.06619859647193825, -0.014043922277891686, 8.844546312895935e-06, 31119000000, 
-0.02912977280678306, -0.0034903158822480506, -8.91233522759922e-05, 31124000000, 
-0.020170012052790336, 0.012738790962132547, 0.00010336839856981268, 31129000000, 
-0.030127127022323938, -0.02721028292561677, -0.00017652989044339735, 31135000000, 
-0.026296416600691895, 0.0015985801752923948, -0.0004433542853779182, 31140000000, 
-0.0074784079869613315, 0.029317485306924407, -0.00018855108755557002, 31145000000, 
-0.07939327570743354, 0.0020928491381997445, -0.00021054582096592965, 31150000000, 
-0.028389300946987744, -0.007379535138547008, -0.0004041736592460561, 31155000000, 
-0.02520158954697153, -0.03837040986752882, 4.9837916374598555e-05, 31160000000, 
-0.08032696610908921, -0.004240056779791803, 0.0001558071347147338, 31165000000, 
-0.037179810562161346, -0.019027159560780507, 0.00035424099656099125, 31170000000, 
-0.06410026135351189, -0.001729704013617622, 0.00020839204549456, 31175000000, 
0.2730211323177763, 0.00735037096468203, 0.00028099962511245245, 31180000000, 
-0.03634186715513865, 0.04128229874025445, -8.007262940418725e-05, 31185000000, 
-0.05367437264249854, -0.01529317618049515, -0.00046707785705609654, 31190000000, 
-0.05059950053681489, 0.02516674837977389, 1.0851196419620994e-05, 31195000000, 
-0.023529312182239873, -0.00877646696371314, -0.0001727318858132084, 31200000000, 
-0.07498235361558654, 0.026883130598048456, 3.192360227688551e-05, 31205000000, 
-0.04008487047792845, -0.00891156517903984, 4.974908687933249e-05, 31210000000, 
-0.03585561170936019, -0.02195316667810482, 5.78453045540134e-05, 31216000000, 
-0.06468706007815939, 0.005053192183107281, -9.659634502177541e-06, 31221000000, 
-0.05783486359152953, -0.04610306631319004, -0.00018201571955860738, 31226000000, 
-0.059628563099250124, 0.023642212482252234, 0.00016177122475338906, 31232000000, 
-0.07530010200146672, 0.006410574349477599, -0.00015448730853670224, 31237000000, 
-0.06791342823210209, -0.007492377938516926, -0.00043092329107978294, 31242000000, 
-0.0419734842713845, 0.025710313296915394, -0.00015798635252261298, 31247000000, 
0.3098837340949118, 0.035863734289424264, 0.00015875649432686102, 31252000000, 
-0.05742358342395391, -0.0182704069645562, 0.00019809425020209367, 31257000000, 
-0.031228355267572703, 0.0100734954985722, 9.391459120362403e-05, 31262000000, 
-0.04507778050531715, 0.00040739576145470133, -0.00030661141270440704, 31267000000, 
-0.04595458822591047, -0.029479793592857063, -0.0001957868227196827, 31272000000, 
-0.04874610762443429, 0.0012013428227506623, -8.424329238852948e-05, 31277000000, 
-0.0706257533128894, 0.010830639502615579, 6.599065976995781e-05, 31282000000, 
-0.04645140324314923, -0.007442018010952108, 0.00016208917605223038, 31287000000, 
0.01449709015851948, 0.0277014594187224, 0.00019480527045438097, 31292000000, 
-0.11006253131151592, -0.03891105141786731, -5.486323777342738e-05, 31298000000, 
-0.08950012995603973, 0.016968693749963504, -0.00018216537348905444, 31304000000, 
0.053377067062204735, -0.015277046100693772, 0.0002445590172025864, 31309000000, 
-0.13881216640591718, -0.00824632742024408, -0.00016570496100071344, 31314000000, 
-0.04222962180462281, 0.01504919233680703, -0.0003525919983619258, 31319000000, 
0.02481813995932159, 0.004365551432393566, -3.291735675483246e-05, 31324000000, 
-0.1135951769807375, 0.0067786296115162755, -0.00013728387865533445, 31329000000, 
-0.05200889943020756, -0.004282469460224864, 5.800043555021648e-05, 31334000000, 
0.02900777077014962, -0.009944838502035442, -0.0001055991925985428, 31339000000, 
-0.1018389520312073, 0.007504330586085284, -0.00024218820119447295, 31344000000, 
0.3840296744349566, -0.03179267887279427, -0.00018454356026790803, 31349000000, 
-0.05672120340809876, -0.006415498482945869, 7.37375055825275e-07, 31356000000, 
-0.0383842613268889, -0.0037573888607510533, -0.00015293436623183836, 31361000000, 
0.05801863403952268, 0.0043579001329589985, -0.0003106987886426839, 31366000000, 
-0.1305053602568809, 0.03363496734300916, 0.00016528705331042188, 31371000000, 
-0.004313895599109538, 0.006187172822177099, -0.00020165489402207044, 31376000000, 
-0.03833581204429892, -0.015568455219138485, -4.322954714611757e-05, 31381000000, 
-0.13788676022233948, 0.01078741738620281, 0.00017396094297889727, 31388000000, 
0.015269152588327374, 0.0065545925107645415, 5.037826559505979e-05, 31394000000, 
-0.15152084187579795, -0.01265838847322774, -3.84607227321066e-05, 31400000000, 
0.04024575119031332, 0.011994257728153563, -8.528496519124402e-05, 31406000000, 
-0.14905876335339993, 0.004743227782826238, 4.231444206474568e-05, 31411000000, 
0.27275331609469344, -0.015037880134969907, 0.00020048128792662579, 31418000000, 
-0.1207635571838192, -0.015126110634779156, -7.58848873738475e-05, 31423000000, 
-0.009938812367824144, 0.03218781434902366, -0.00013998758713745888, 31429000000, 
-0.0620647190520025, -0.0062470422356803905, 0.00010360938594931046, 31435000000, 
-0.1362247568569766, -0.019780844102845505, -0.00025632870369160586, 31440000000, 
0.029058034911937952, -0.0017606828831907353, 0.0002152994870949415, 31445000000, 
-0.10473329079624702, -0.012594291793354194, -0.00011407711110619499, 31450000000, 
-0.09055177245512515, -0.006267315753004146, -0.00020718473267610806, 31455000000, 
-0.037114899435255755, 0.006860291160308398, 9.168837167029763e-05, 31460000000, 
-0.0959565459959302, -0.028261948097139607, 7.007059347770434e-05, 31465000000, 
0.04075799546841376, 0.0007092286973909098, -4.536840694448743e-05, 31470000000, 
-0.06602293885606556, 0.017128804439255588, -0.0002771300552648993, 31475000000, 
-0.19352178638505002, -0.008125051097322181, -0.00013068558386370013, 31480000000, 
-0.007342879449636252, 0.03928336192599727, -0.00027023246515168596, 31485000000, 
-0.07259475864532666, -0.01008962696437456, 0.00018608889125714282, 31490000000, 
-0.1424022822246358, -0.010853355302904539, -0.00016222432893484896, 31495000000, 
0.01973437726450109, -0.0010678052977764565, -0.00038704350983290186, 31500000000, 
-0.06225303868998951, -0.009605114320773617, 1.0327711911915181e-05, 31505000000, 
-0.13494982516625548, -0.0071206634984480235, -0.00019284122630580663, 31510000000, 
0.03522802546485392, -0.01715244602813699, -0.00010629539897755344, 31515000000, 
0.24849001596689926, 0.021836634254725214, 7.94982638817197e-06, 31520000000, 
0.014587377551856854, -0.04562969153592634, -0.0005000814539261012, 31526000000, 
-0.0574860703536717, -0.010710229291413862, 0.00036870082538026583, 31531000000, 
-0.14879234359759344, 0.01570405846820318, -0.0002469281755591531, 31536000000, 
0.02810538343783948, 0.012481934022368203, -0.00020104259784990068, 31542000000, 
-0.14892867972534868, 0.0013774749145827347, 6.049821149528313e-05, 31547000000, 
0.05901107462845165, 0.01789377876900023, 8.324531591843855e-05, 31552000000, 
-0.12392619963804682, -0.00873669851401797, -0.0003734729377061856, 31557000000, 
-0.0846686066071097, 0.017881880227184878, 0.00018697470587693429, 31562000000, 
-0.07066160842348347, 0.01221585536765278, 7.09765863087934e-05, 31569000000, 
-0.08871023105661109, -0.009824408090927834, -7.923493665585172e-06, 31574000000, 
0.009427407331441763, -0.009588598461477148, -4.672776161619319e-05, 31579000000, 
-0.14191857202152322, 0.01945167610787052, 0.00023138118957225485, 31584000000, 
0.24872042395862293, 0.009788208509432865, -0.000607115966799585, 31591000000, 
-0.1838171741261173, 0.02565078153547305, -5.726690583735379e-05, 31596000000, 
-0.0858276224780594, -0.005554594407202502, -9.250813798579971e-05, 31603000000, 
0.058916966307906375, -0.007782963718630655, -5.086660666546744e-06, 31608000000, 
-0.10546205846583451, 0.0015981317905126692, 0.00022984930473516116, 31613000000, 
-0.017603135104752768, -0.009185210136701809, 7.68117269082867e-05, 31618000000, 
0.00571893101243549, -0.012821582768726194, 7.087721131191932e-05, 31623000000, 
-0.1124058114641653, 0.014346152419374265, -0.0002492382109283423, 31628000000, 
-0.014710564336497062, -0.03797656202697299, 0.0001863540270917541, 31633000000, 
-0.06622000264918372, 0.02736560686974578, -0.0002401800460275806, 31638000000, 
-0.07630034217642623, 0.018578017068042664, -8.04174523631843e-05, 31643000000, 
-0.016236079777241105, 0.005889616828178643, -0.00015914784582361885, 31648000000, 
-0.016733482889303382, -0.010214951251372157, -7.354920027291915e-05, 31653000000, 
0.2835911989852717, 0.019848700123371706, 2.434233578350635e-05, 31658000000, 
-0.053859435618136865, -0.022984143773834204, 7.233943486513626e-05, 31663000000, 
-0.06037919863019657, -0.01629612988259761, 0.0003020178328190149, 31668000000, 
-0.04717847330982529, -0.0031279673655062556, 0.0004108356786506414, 31673000000, 
-0.07241183000577667, 0.007563127876229359, 1.726631645798395e-05, 31678000000, 
-0.061560029875063996, 0.0008858449563756424, -0.0001220706164677595, 31683000000, 
-0.06931086988355539, 0.00961352352835779, -0.0002795908136874895, 31688000000, 
-0.046072520862757475, 0.02978002429836684, -0.0006473103468225612, 31694000000, 
-0.030404690098783715, -0.0024735172437803476, -0.00018192596614735433, 31699000000, 
-0.054181218873798516, -0.00563695335347367, 0.0002018160603016737, 31704000000, 
-0.03009043619158079, 0.022973083569428843, -0.00014761810574329904, 31709000000, 
-0.018487025687359576, 0.014602208732574154, -0.00014582904360943073, 31714000000, 
-0.0751791577648037, 0.008254618464240871, -0.00048119812241101113, 31719000000, 
-0.051768356642689556, -0.016863900356495362, 0.00020938813048554475, 31724000000, 
-0.03629581797728025, 0.008207261576355806, 0.00011139846393229154, 31729000000, 
-0.03956583139522091, 0.006894715090773607, 0.00010150473796141189, 31734000000, 
-0.04056522554007215, 0.017072557510273402, -0.00023090383824783738, 31739000000, 
-0.050719294085844364, 0.00915037355541269, -0.00017482637673859567, 31744000000, 
-0.06376456340195172, 0.00037737611282553127, -3.005453488521096e-05, 31749000000, 
-0.05911846893933355, -0.03404145415578627, 0.0001522289779325635, 31754000000, 
0.32780802719405894, 0.01410492827364057, -1.8059206621905167e-05, 31761000000, 
-0.056573444950342715, -0.020776116287225675, -9.159876581866975e-05, 31766000000, 
-0.0219341993044217, -0.01321923976008625, 0.00011817328784471107, 31771000000, 
-0.046050784767403506, -0.011368867988576324, -7.94542331334525e-05, 31777000000, 
-0.05700953858234671, -0.013422830864425818, -0.00017468891897370187, 31782000000, 
-0.05155144559608923, -0.016314230053343006, 8.622259202107629e-05, 31787000000, 
-0.057380859667676865, 0.0035827554344727347, -0.00013383921710631667, 31792000000, 
-0.07566178398922078, -0.013464490713114882, -0.00014409664919568703, 31797000000, 
-0.06816353599768459, 0.004162735564980706, -5.514417860508227e-05, 31802000000, 
-0.08214551222530286, 0.01615053799101552, 9.953766069997722e-05, 31807000000, 
-0.05056920722532911, 0.02708690823251512, 0.00012621500234239426, 31812000000, 
-0.04171204662285558, -0.007111483647300898, 2.6718418106220363e-06, 31817000000, 
-0.008130671711191452, 0.004276819883562322, -6.852821393197534e-05, 31822000000, 
0.32652630670582256, -0.0025561370543015303, 0.00026786336259188807, 31827000000, 
-0.05250214497642771, 0.013033571641822873, 7.007050189613515e-07, 31832000000, 
-0.06575199739170678, -0.055563717626714804, 0.0003521567420396647, 31837000000, 
-0.0423403297527713, 0.005989054754906534, 0.00013357362427994914, 31842000000, 
-0.04908223680726592, -0.018706859439281853, 7.7340578900476e-05, 31847000000, 
0.0028784145780369258, -0.007089067013863004, 2.34180596382612e-05, 31852000000, 
-0.07530786757531431, -0.019149662330776307, 3.968266378196565e-05, 31857000000, 
-0.04138570671045101, 0.015611614838196277, 3.673810244383896e-05, 31864000000, 
-0.009882962569431112, 0.0039003840313734644, -9.711889642341148e-05, 31869000000, 
-0.09581539997287808, -0.009541442970291594, 0.00018448843307722392, 31874000000, 
-0.044100547618134485, 0.008507530309441642, 0.00010192569496472579, 31879000000, 
-0.026041874186276754, 0.01647206436769168, 0.00026727437113857903, 31885000000, 
-0.08778038471708514, 0.004631461851918107, -0.0002490998496002849, 31890000000, 
0.3214282101729169, 0.007064335564238304, -0.00015456607932717826, 31895000000, 
0.032193836498299835, 0.010135345899720165, -0.00018704223853668105, 31900000000, 
-0.11287129641001963, 0.005427478010567989, 0.00016976848575505631, 31905000000, 
-0.086146781644518, -0.04126537654126412, -0.00020403414776609118, 31910000000, 
0.04204975780109575, -0.00029615730597397274, 0.00020929165924849966, 31915000000, 
-0.07789177574712539, 0.021025676225823943, -4.474752244308278e-05, 31920000000, 
-0.033797237706044835, 0.00907126251977211, -0.0002514845738763692, 31925000000, 
0.018975891408573482, 0.010480421701102416, 0.0002678656743013892, 31930000000, 
-0.13629931124469052, -0.01370800919367925, 0.00018461166946612896, 31935000000, 
0.004883830683897909, 0.00195785154285835, -8.024814279872854e-06, 31940000000, 
-0.09657670063601145, 0.015657598308608498, -9.358563362778657e-05, 31945000000, 
-0.0746928549072476, 0.002646966301596109, 1.8180647911133895e-05, 31950000000, 
-0.01730252419102988, 0.026816845389259877, -9.115624631676463e-05, 31955000000, 
-0.11079182923976454, 0.004706082059432936, -0.00015526582721429118, 31960000000, 
0.41197672292142784, 0.005226136524898348, -2.4503376828250948e-05, 31965000000, 
-0.11660292367111129, -0.02618468889936101, 0.00019454712856147995, 31971000000, 
-0.062375929334518306, -0.017148811306882346, 1.1760421406141305e-05, 31976000000, 
0.06836670403256559, -0.009667321806408275, 6.172535557641546e-05, 31981000000, 
-0.10968833585525922, -0.011974147572951694, -4.5681579881119195e-05, 31986000000, 
0.0005754802645696324, 0.021185254064101294, -6.840446940784352e-05, 31991000000, 
-0.053097650559432746, 0.01949178424143965, 8.617008385202428e-05, 31996000000, 
-0.12964276407639705, -0.012727829036864377, 6.0000394872789606e-05, 32001000000, 
-0.005632069965299391, -0.009302812062512935, 0.00022672054820945157, 32006000000, 
-0.0933249914750758, 0.02152204696704399, -0.0002881056441647192, 32011000000, 
-0.09300897111717266, 0.005347421715195715, -0.00021066158940375744, 32016000000, 
0.020155603914680825, 0.01065558128494424, 0.00018616675662344527, 32021000000, 
-0.1633103580408823, 0.0035463426102597157, -1.5272243403836053e-05, 32026000000, 
0.006824729960190654, 0.014023921914726704, -6.424938525461663e-05, 32031000000, 
-0.050885074735377074, 0.0040279457125814684, 0.000184427472727618, 32036000000, 
-0.08897123832424068, -0.008249557474673505, 0.00038102283061902713, 32041000000, 
0.018228128438227867, 0.021188340095626923, 0.0002566815790603923, 32046000000, 
-0.09643097367073263, -0.01865489641452657, -2.247184150551845e-05, 32051000000, 
-0.010516731574989894, 0.004067738173124145, 9.37921855349716e-05, 32056000000, 
-0.0487734797326616, -0.0023367173828969844, -6.415657544114469e-05, 32061000000, 
0.25823237725434856, 0.01662849675704993, -0.0002836694934130137, 32067000000, 
-0.026450388921336974, -0.029763165053384277, -0.00013646326720588475, 32072000000, 
-0.10279735872890239, 0.013100896767027283, -2.990943828551132e-05, 32077000000, 
0.002074624408715197, -0.003507993470194132, 1.5467549998935087e-05, 32082000000, 
-0.14766451708856573, -0.01756870587964086, 0.0003962522509207685, 32088000000, 
-0.0789327909415394, -0.020915007622247378, 0.0003615579602393962, 32093000000, 
0.03430650277493853, 0.010377493125234585, 0.00018455937371504577, 32098000000, 
-0.0823921802761203, 0.03167464730773034, 0.0001271334685779987, 32103000000, 
-0.024165202178614776, 0.0022589515218805114, 0.00020517260289891438, 32108000000, 
-0.04677625105311931, -0.017588132616981837, 6.4481746949249535e-06, 32113000000, 
-0.12765900511378625, 0.015058459485367496, 1.7045863023737263e-05, 32118000000, 
-0.02824650142553257, -0.005963976416308067, 9.851310793102147e-05, 32123000000, 
-0.07582808092932526, 0.0022574451689005614, -0.0002491103948315148, 32128000000, 
0.2975097905596708, 0.03879309779327015, 0.00012550654038591448, 32133000000, 
0.012519590334284823, -0.0032433472505211352, -4.497688200928495e-05, 32138000000, 
-0.0537121772522866, -0.0076905860826507, -5.8042392546679824e-05, 32143000000, 
-0.14118952913313085, -0.002959184161790365, 0.0003199453310716711, 32148000000, 
0.007438020083222788, -0.006770344375131628, 2.225158333171376e-05, 32153000000, 
-0.0967867197960629, -0.01090814861275912, -0.00023936355482230318, 32158000000, 
-0.06302769947353222, 0.018973928704922996, -9.273842405343397e-05, 32163000000, 
-0.0787703405289357, 0.0357213763214537, -0.0002828943301354887, 32170000000, 
0.010646092396065588, 0.017313680025913974, 7.963544125399361e-05, 32175000000, 
-0.12318762592067191, -0.004304774939366679, 1.4167651098466932e-05, 32180000000, 
-0.04540370831807422, 0.005111567593420152, -0.00014371295325125023, 32185000000, 
0.041895804567535944, -0.01103899704613849, -4.377497623550574e-05, 32191000000, 
-0.12028556668815081, 0.021382331757715447, 0.0001291849156407827, 32196000000, 
-0.01376827001111704, -0.04327374051568147, 1.1646563343186286e-05, 32204000000, 
-0.12202673530598374, 0.008000685385009844, -7.834013086546179e-05, 32209000000, 
-0.020683462788671666, -0.025732499336539177, -1.0252316949239616e-05, 32216000000, 
-0.09594213547800744, 0.018498420294611007, 0.0001764246660272668, 32221000000, 
-0.06961261435127522, 0.0055389713410219175, 0.00014520963839912156, 32226000000, 
-0.010037474403253192, 0.0022889097749594165, -2.1844400981662163e-05, 32231000000, 
0.6410804428687691, 0.01022436229401026, -0.0004357354131723458, 32236000000, 
-0.011701772062801822, -0.02513749947181665, -0.00017570807240735255, 32241000000, 
-0.04060414589960573, 0.01798442028336535, 0.00011163285928193021, 32246000000, 
-0.05709483937678528, 0.009204322795056398, -0.00018043713938895376, 32251000000, 
-0.04770070706408482, 0.01438025099134169, 0.000120404339256642, 32256000000, 
-0.0038597171913089105, 0.013568152174328715, 9.390553029750449e-05, 32261000000, 
-0.12477311416468073, 0.003368971598291111, -2.1295055931574942e-05, 32267000000, 
-0.08079715055268852, 0.021458180053106478, 0.0001919982974542121, 32272000000, 
-0.05122537747188343, 0.008734076252498668, -2.096058507315924e-05, 32277000000, 
-0.0966581004484633, 0.03339938947970716, -0.00042117534059753654, 32287000000, 
-0.0539138284299904, 0.03989643519847134, -1.4301793378746939e-05, 32292000000, 
-0.04130013168290912, -0.00860885847324505, 0.00020447705339675146, 32299000000, 
0.3221820171910203, -0.003766348927769201, 0.00018659325112095645, 32304000000, 
-0.04936916940997326, 0.011322323838495066, 0.0003781152632573528, 32309000000, 
-0.037531888251707224, 0.015693306688721997, 2.0135963928140513e-05, 32315000000, 
-0.06099328725429646, -0.005083593403879098, -3.067251272656876e-05, 32320000000, 
-0.05958784067479349, -0.006371919363461811, -8.220629729395267e-05, 32325000000, 
-0.012270638409138272, 0.008076040475501988, -0.0003576185205035167, 32331000000, 
-0.04404508719857353, -0.002276158576024462, -0.0004104931986221411, 32336000000, 
0.003180965390597581, 0.005177345621989329, -1.3181455962104805e-05, 32341000000, 
-0.09890733372417779, -0.011540309945401565, -0.00013738817687151847, 32346000000, 
-0.06387456835769463, 0.004145254213929875, 0.00038933957125679945, 32351000000, 
-0.06219005489987264, 0.005022723675492702, -0.00026109658198034054, 32356000000, 
-0.036340434005748656, 0.008918044953944437, -6.955970364778366e-05, 32364000000, 
-0.0681038089649619, -0.0032031629821027896, 8.252191160478915e-05, 32370000000, 
-0.0667213954592133, -0.010974738798664733, 0.0001794066320669057, 32375000000, 
-0.0974459345644065, -0.015613026201391805, 0.00010673690418979875, 32382000000, 
-0.06614932052458829, 0.0032552435168712998, 0.00014543731600516097, 32387000000, 
0.0023089952501416794, -0.0311017187709536, 0.00020393233921155802, 32392000000, 
-0.09940561920702577, -0.004084402147095065, -0.0001936291020632227, 32398000000, 
0.2768699616316971, -0.015742080389370756, 7.87727545246143e-05, 32404000000, 
-0.06428478578771703, -0.005669178492841363, 0.00014999286085626355, 32409000000, 
-0.050685840848012954, 0.019923481279354824, 0.0003580503290138618, 32414000000, 
-0.04936417079653646, 0.009190355466934256, -7.219657144950327e-07, 32419000000, 
-0.044438517691601426, 0.04814750797927551, -2.7047506748981e-07, 32424000000, 
0.02083275886609698, -0.023813326457997098, 0.0003162741574562237, 32429000000, 
-0.11871417257261524, -0.02048002609913631, -1.2084324970533893e-05, 32434000000, 
-0.04682114316353349, 0.03529413945696177, -0.0002921845746742147, 32439000000, 
-0.014952316765664046, 0.013747674989625935, 4.011806029176326e-06, 32444000000, 
-0.08109335589897647, -0.020957898293598034, -4.2252985732523657e-05, 32449000000, 
-0.05783131328893743, -0.008177636297772626, 0.0001303900912360064, 32454000000, 
0.009574313278371306, 0.007685621532633895, -0.00016750282657364968, 32459000000, 
-0.09125875542189861, -0.013237850065902319, -5.2959589526292e-05, 32464000000, 
-0.08379588443598074, 0.010996641724500818, 0.00016499768018748615, 32469000000, 
0.37343607341018337, 0.02046793854111178, 0.0001620877509272417, 32474000000, 
-0.10912387887274502, -0.014970776822546803, -0.00010090180660955506, 32479000000, 
-0.05026826090081041, 0.00994607296990017, 6.293416832253041e-05, 32484000000, 
-0.03216470813851377, 0.033437375829535716, 6.916889874962332e-05, 32489000000, 
-0.08380965259980543, -0.0070472483902820435, 0.00013869173305277335, 32494000000, 
-0.02176846113476455, -0.005041146478888862, 0.00017260521958658074, 32499000000, 
-0.007756979811700868, 0.016859685267697055, -0.00012943701850738122, 32504000000, 
-0.08431287322995609, 0.021482273847426972, 0.00016429336635020962, 32509000000, 
-0.006741622657168196, -0.0016607051755288716, -0.00015491602371979098, 32515000000, 
-0.09966642762794171, 0.01652389278707617, -0.00021768622969935587, 32520000000, 
-0.05996495786240137, -0.0009706969932600127, 0.00024060298727287825, 32528000000, 
-0.012268870263782603, -0.011805259631815852, -0.00014596847862316186, 32532000000, 
-0.11138928814077165, -0.0043321363667334365, 4.5081199669961925e-05, 32537000000, 
-0.017080627611077537, -0.008517843633447209, -4.404837827096248e-05, 32543000000, 
-0.08572095120967879, 0.031103822911903615, -4.5167012177344754e-05, 32548000000, 
-0.05968015415366896, 0.011844125337576327, -0.00011660543263491613, 32553000000, 
-0.04920676699473449, 0.011307586439467755, 0.00042644389646112764, 32558000000, 
-0.07236163433028585, 0.014312895683709926, 5.16203969402137e-05, 32563000000, 
-0.012972061866879225, 0.018450592570043955, -0.00017373771255133947, 32568000000, 
0.18694533834537388, 0.016990282966399546, 0.0002994555327179659, 32574000000, 
0.018919260037460105, -0.0036296057720392, -5.0366608916137055e-05, 32579000000, 
-0.07664281725394892, 0.006357087101018104, 0.0004914588848867479, 32584000000, 
-0.05285516825925315, -0.0023730943083795425, -4.7899392062817504e-05, 32590000000, 
-0.022305524739735, -0.0029107511056735624, -0.00011800085352997225, 32595000000, 
-0.09068119223395735, -0.011986315898079067, 0.00028588115434704934, 32601000000, 
-0.003408289585686712, 0.02869079730995377, 0.0005490247767760894, 32606000000, 
-0.09409910652063412, -0.0029603488046068913, 0.00016316412991754706, 32611000000, 
-0.04547969598432614, -0.008958995412248719, -8.094594823352832e-05, 32617000000, 
-0.09371976276508383, 0.026088832836081467, -3.912181357934603e-05, 32622000000, 
-0.04232424884246625, 0.008124328008959285, 4.231297458512565e-05, 32627000000, 
0.018444614486249553, -0.012084662707176069, -7.549904897727395e-05, 32632000000, 
-0.10639014128781549, -0.007651945500714268, 0.00013479826941576958, 32637000000, 
0.00740874931161211, 0.022764276222240483, -1.970936149696292e-05, 32642000000, 
-0.10696332405342948, 0.03714461265050778, -4.30130435088856e-05, 32647000000, 
-0.08730530006180101, -0.005668501067212424, 0.00011655886377930164, 32652000000, 
-0.026319643098600763, -0.0033086464631412525, -0.00026368407026408446, 32657000000, 
-0.12951857906882017, 0.024886185774274587, -0.00016743913213731077, 32662000000, 
-0.011778110711114436, -0.008791039729123883, -0.00011121945015638593, 32667000000, 
-0.031701305015601644, 0.017997641937250845, 0.0001203707175862244, 32672000000, 
0.30378211000841354, -0.011423851665891148, -6.645256659359151e-05, 32677000000, 
-0.006426804781592157, 0.015112991198972506, -0.0001244891453438575, 32682000000, 
-0.15651571954300114, -0.013727467485364039, 5.1909174324690175e-05, 32687000000, 
-0.06507520986650205, 0.008794467936911568, -0.00013654856437122495, 32692000000, 
-0.017329884099853553, -0.0064344540586061365, -0.000130817761664477, 32697000000, 
-0.16499486526247337, -9.724866650896464e-07, 8.038347532206482e-06, 32702000000, 
-0.018190407460235123, 0.00275666816451714, 4.679659057138589e-05, 32707000000, 
-0.08411540797715716, -0.015232710805467321, -2.03392402765908e-06, 32712000000, 
-0.07768094037030698, -0.011939996764895402, 0.00013977617760109438, 32717000000, 
0.017728150341743607, 0.0237132066233483, 0.0001309560994135192, 32722000000, 
-0.0951469293361075, 0.005189566553400509, 0.0001414429449969219, 32727000000, 
-0.026449577666083073, -0.01174526721432191, 0.0002587139546345331, 32732000000, 
-0.1017419638285579, 0.024335958321861084, -4.271326062529554e-05, 32737000000, 
-0.06317240501066941, 0.0016318672548877075, -1.11889437118031e-05, 32742000000, 
0.29371284560209904, -0.013420412464034798, -0.000226412144090417, 32748000000, 
-0.22057182331702596, -0.009671890935666592, -2.5640349909942216e-05, 32753000000, 
-0.062190098850265954, 0.022300048514836336, -0.00021119997532662786, 32758000000, 
0.02898179162108513, 0.02347949013095902, 5.80763293480351e-05, 32764000000, 
-0.0798286148078623, 0.019804138573150273, 0.0005758181789303793, 32769000000, 
0.00010553835137282848, -0.00853352794632146, 0.00024011259058467096, 32774000000, 
-0.10515587752246122, -0.004597212510964351, 0.00010726614393564864, 32780000000, 
-0.0023057960486518045, 0.0033892690868982805, -0.00023000871475595424, 32785000000, 
-0.13482515215977015, 0.014368945107673921, -0.00024467512781736273, 32790000000, 
-0.08296992916383293, -0.011092083545968056, -0.00035823354200136996, 32795000000, 
0.03042873670368755, 0.009893327821661331, 0.0002970538407682332, 32800000000, 
-0.1219418327990885, 0.03633475407339304, -4.5250640128744406e-05, 32805000000, 
-0.02352882434567912, -0.015889969832037627, -8.810748223434951e-05, 32810000000, 
0.4072743857382983, 0.025321457488121726, 0.00010507127665634227, 32815000000, 
-0.10732353606146212, -0.014517881105380352, -2.795127282105031e-05, 32820000000, 
-0.042829930613848904, 0.03182771953323999, 0.00023504285612110576, 32825000000, 
0.017612116640028753, -0.008073098768605416, -7.052463898682196e-05, 32830000000, 
-0.08133554638713564, -0.0005992602911631415, 9.138909230424621e-05, 32835000000, 
-0.1342063576530365, -0.00810036121930444, -7.855382622420784e-05, 32840000000, 
-0.015023339645397137, -0.01608131378906763, -0.00018072185868147231, 32847000000, 
-0.1300848334664114, 0.011893084381941782, 0.00011369960700825958, 32853000000, 
-0.007327023786971108, 0.01676068684738886, -0.00020085753493700708, 32858000000, 
-0.04815649330382098, -0.014227901737051617, 0.0002499745877167966, 32863000000, 
-0.003182848354297491, 0.012012889761044594, -0.0003585992883746583, 32868000000, 
-0.08368567591028755, -0.0018195062550094552, 0.00016119915527555218, 32873000000, 
-0.05517569606366569, 0.006924305788890683, -0.0002887049705212508, 32878000000, 
-0.06521801157021895, 0.01370693362074912, -0.00028582041128407467, 32883000000, 
-0.039548723072221334, -0.010415338909516042, -0.0003369527574929624, 32888000000, 
-0.06232372575477297, 0.0010308809845097802, 1.65603919586671e-05, 32893000000, 
-0.056437508967622216, -0.017737239716395015, -0.00010893481647167147, 32898000000, 
-0.022582318300004713, 0.02833489844899346, 0.00018070903523632222, 32903000000, 
-0.033404672520411766, -0.04655707481012257, 0.000252716152741354, 32908000000, 
0.25905266024491175, 0.002380195844018426, -0.00013018764536415462, 32913000000, 
0.1366790461177373, -0.0034356034179735687, 8.85448420809073e-05, 32918000000, 
-0.07480098561651105, 0.018779103344327332, 0.000340443889865779, 32923000000, 
-0.044179518068476836, -0.011476510812585846, -0.0002432658851829916, 32928000000, 
0.011546355473058446, -0.013112312864120013, -1.3943933220853125e-05, 32933000000, 
-0.11925227675450897, 0.003511331477424334, 8.943787178248221e-05, 32938000000, 
-0.05177544097383671, 0.013185567115435207, 1.530040971097342e-05, 32943000000, 
-0.009911958804341656, 0.015885455719416096, 0.0003334871967188572, 32949000000, 
-0.054338076732581564, 0.0020784684915766943, -0.00020225920988097904, 32958000000, 
-0.06742871345869592, 0.023955821537536462, 0.00012742362418829354, 32963000000, 
-0.05435661633568145, 0.004631462119523795, -0.00012352614246749505, 32968000000, 
-0.08104575416064243, -0.01681834694721508, -9.627175623551212e-05, 32973000000, 
-0.05245894361675296, -0.01209634699331638, 6.518291670923703e-05, 32978000000, 
-0.08516514945020302, 0.004627995392718064, -0.0002593208713843623, 32984000000, 
-0.05225113462878668, -0.023273684494445897, -0.0003533525478758576, 32989000000, 
-0.03039054380846605, 0.007103741142368512, -0.00010396987878429522, 32994000000, 
-0.08693473616435204, -0.03949839122311307, 0.00017734221317396018, 32999000000, 
-0.06393990724021673, -0.003712624053638096, -4.600475976401882e-05, 33004000000, 
-0.035616426523271474, -0.024659450918296293, -0.00016497382556985402, 33009000000, 
-0.033259396484656464, 0.02338943374095837, -0.00010378092715782449, 33014000000, 
0.3981705371793693, 0.005755128705459606, -0.0002149629846545775, 33019000000, 
-0.12744394142778528, -0.009376009309795088, -0.00016966318406971335, 33024000000, 
-0.0518145238776062, -0.004237011062204571, 7.915351175096846e-05, 33029000000, 
-0.06102900099276355, 0.007105726422209045, 0.00019122458548304614, 33034000000, 
-0.06058879241116305, 0.033690895912411124, -0.0001385282617356224, 33039000000, 
-0.06097046554041436, 0.004064811872400702, 0.00024056788912281117, 33044000000, 
0.013782428737854475, 0.021567669659482838, -0.00013552551438292672, 33049000000, 
-0.08813606552634935, -0.011138868396050999, 2.2890980064182445e-05, 33054000000, 
-0.04837200149714928, -0.005813567548673239, -0.0001635765958775589, 33059000000, 
-0.011472696783735636, -0.008738261043907274, -0.00016354757701317118, 33064000000, 
-0.0861340425426653, -0.004181742585441364, 9.563896943816299e-05, 33069000000, 
-0.055696115153396036, 0.006014638117890231, -0.00021672573757504433, 33077000000, 
-0.10673437556951472, 0.014358755288891828, -0.00014435389981648622, 33082000000, 
0.2947067997929601, 0.014362199735357331, -0.00014892936497068208, 33088000000, 
-0.031169030347236587, -0.010162552008300489, 0.0001767198589629075, 33093000000, 
-0.057135483145665765, 0.013006681839413753, 0.00046233267168050834, 33098000000, 
-0.01720291664681548, 0.024614327784994828, -0.0002035759821490268, 33105000000, 
-0.10635575303632616, 0.0001357326309607299, 0.00010087545221444024, 33110000000, 
-0.007295173208129453, 0.018687438011959677, -0.00025907445572089487, 33115000000, 
-0.10755548177047067, -0.014491974760158817, 0.00018677502472281348, 33120000000, 
-0.06679972987487287, 0.01342044414651714, -0.0002743686358824456, 33125000000, 
-0.020857779385198658, 0.018013324869094013, 0.0001837027579979218, 33130000000, 
-0.12024262417050528, -0.0016016248585709481, 0.00011846437780575979, 33135000000, 
-0.07848256850757168, 0.01828027317812103, 9.041479025114228e-05, 33140000000, 
-0.009302611834719724, -0.020701900359783823, 5.0779640926504316e-05, 33145000000, 
-0.09331595631353388, -0.03475689722798864, 0.00010753131889176785, 33150000000, 
-0.05251657517594616, -0.014036675010566876, 1.788682975279884e-05, 33155000000, 
-0.09298353760553305, -0.002374974181722466, 0.00016326838824174281, 33160000000, 
-0.04086134808768517, 0.024193921992387856, -0.00032565730838060456, 33165000000, 
0.01771198949945131, -0.03311277566906412, -0.0003485111838421738, 33170000000, 
-0.09058434561113013, 0.02236000447131862, -8.728995509940131e-05, 33175000000, 
-0.09443250369155082, 0.026490028233607733, -0.00023249428369542333, 33180000000, 
0.31424082335706294, 0.016013706873809257, -0.0003262767864234352, 33185000000, 
-0.059808517827623586, 0.010704659924869995, 5.477857210182699e-05, 33190000000, 
-0.05924838619520106, -0.0030547751551809237, 0.00025610121232621787, 33195000000, 
-0.008360567574710834, 0.004823880760621186, -8.616261393014666e-05, 33200000000, 
-0.12360203215319376, -0.015261130461938204, -0.0003664238057163739, 33205000000, 
0.03297441585517334, -0.007508753033215909, -0.00033659244958617664, 33210000000, 
-0.08339403409531347, -0.0039282028078475055, 0.0001536498449173743, 33215000000, 
-0.04018669782764907, 0.0220266306827547, 0.00011799657552043007, 33220000000, 
0.020816257438665258, -0.018060068118495268, 0.0002492955771507522, 33225000000, 
-0.13338677990535122, 0.011470250542891981, 7.4646785745881325e-06, 33230000000, 
-0.004055492392664262, -0.02874041566282563, -0.00032544093180773506, 33235000000, 
-0.09185383892074621, 0.0034457712257254447, -0.0002550644538536389, 33240000000, 
-0.03065748869078118, -0.01338080835795198, 0.000129912646129716, 33245000000, 
-0.02335482630175443, -0.027692746857169586, -0.0001710692827737943, 33250000000, 
0.23788578564019278, 0.004760015958642618, 8.059184017854258e-05, 33255000000, 
-0.01418958890710377, -0.005864319355674913, -0.0002998369079179005, 33260000000, 
-0.12907822629990073, -0.015185446812171694, 2.8970990845135265e-05, 33265000000, 
-0.05355352792115854, 0.006964270450203158, -0.00016520338076450304, 33270000000, 
0.01956763253438832, 0.012027327745087277, 9.665056168652775e-05, 33275000000, 
-0.1245784364119291, 0.02979705738036872, 6.644775227667399e-05, 33280000000, 
-0.0723147309639461, 0.020951577545119636, -3.167722249621242e-05, 33285000000, 
0.003739987696371126, 0.00039668904986608314, -0.000297151243452835, 33290000000, 
-0.0902815804185641, 0.025635582274106377, -0.00014497716845064584, 33295000000, 
-0.06322731253053765, -0.02170293670806842, -0.0002442946048685562, 33300000000, 
-0.10114037781628939, -0.01569055419608904, 1.065679852226766e-05, 33305000000, 
-0.07288424797341593, -0.0353080987548485, -5.555937114887259e-05, 33310000000, 
-0.0038059026379181613, -0.029284568808785133, -0.0001358130210309839, 33315000000, 
-0.0899028737422834, -0.008528837451842797, -6.176549048504124e-05, 33320000000, 
-0.04117068078703564, -0.019828174871202635, -0.000142279247927558, 33325000000, 
0.010539566678817593, 0.0006676549217671494, 5.364571559730159e-05, 33330000000, 
-0.08555906455393496, 0.007105985009797118, -7.424301239576013e-05, 33335000000, 
-0.059450056297668384, 0.0012141353623954336, 0.00033902629334057707, 33340000000, 
-0.0216227226361033, 0.007962676429944878, 1.7375214236447168e-05, 33345000000, 
-0.10334414167942067, 0.04674789920335335, 1.4750501892352449e-05, 33350000000, 
0.24688171297253506, 0.0033316846411551877, -7.775018377463726e-05, 33356000000, 
0.025017901704138246, 0.0155124031553382, -0.00010905933265130895, 33361000000, 
-0.11605578466968304, 0.02261547631608335, 0.0003678986276846091, 33366000000, 
-0.05968154271364823, 0.031065717873943775, -0.0003409498069264747, 33371000000, 
-0.03503739564117015, 0.003149560005672288, 0.0001160479905027056, 33376000000, 
-0.12486351593599414, -0.029798704581421462, -5.063090413417411e-05, 33381000000, 
-0.0680147782665126, 0.006192216098708898, 5.040463909826124e-05, 33386000000, 
-0.0150489898264337, -0.012167524038357708, 0.0002761350463035468, 33391000000, 
-0.0945917634252937, -0.010749909729277533, 8.109304212257137e-05, 33396000000, 
-0.08239284586377443, 0.010670557957815803, -0.00021230533664151822, 33401000000, 
0.06539903608569582, -0.029971808269201865, -0.00020276508684172984, 33406000000, 
-0.10405330187942342, 0.004808952475463529, -0.0003984250308447754, 33411000000, 
-0.026786076634741928, 0.012661935462022296, -0.0003294072244660133, 33416000000, 
-0.007528022535356801, -0.020952811886203, 0.00016152922056119365, 33421000000, 
-0.09376701113077106, -0.006644598420169635, -4.56648986499015e-05, 33426000000, 
-0.06592472273385279, 0.0034100031550537155, -0.0001272710199249241, 33431000000, 
-0.03992592145042079, 0.0023865303667091027, 1.197191346633216e-05, 33437000000, 
-0.09030513637347927, 0.04030189585459444, -8.690294882818242e-05, 33442000000, 
-0.047716479491288155, -0.0022566772081885314, -0.00019134282717326857, 33447000000, 
0.011920749794883254, -0.0066198164124080215, -1.0498250259310635e-05, 33452000000, 
0.19365423581998434, -0.010982349192999766, -0.00013708936902806065, 33457000000, 
-0.008142401217284115, 0.03048118024241814, 3.150476058547616e-05, 33462000000, 
-0.0025243724853196954, -0.013602896997147687, 0.00040375253303356136, 33467000000, 
-0.1340116360157894, -0.012544446339909662, -0.0005239458319048079, 33472000000, 
-0.0563863824127532, -0.014103026986507044, 0.00021297276994151397, 33477000000, 
-0.058416711289820566, -0.012256847262797589, 0.0005911743024461379, 33482000000, 
-0.07912799888344307, 0.026815182379147155, -0.00011580710334113503, 33487000000, 
-0.07240724916550684, -0.012548506798398576, 0.0003832867311150262, 33493000000, 
-0.03908508200306695, -0.022450647658673606, -4.688721612851602e-05, 33498000000, 
-0.060541601081188424, 0.008691113009678952, 1.3102548250349534e-05, 33503000000, 
-0.07681882686422901, 0.03186840328574076, -0.00019769275093376956, 33508000000, 
-0.04710659328125797, 0.006841501405227183, 3.0973249443082864e-05, 33513000000, 
-0.1347368888219917, -0.019573222305806163, -0.0003149888470339115, 33518000000, 
-0.04407871533368697, -0.006524746650112182, 0.00046356882416715003, 33523000000, 
0.39962744187380306, 0.0009615075729800394, 0.00010187866067572548, 33528000000, 
-0.1363743568794731, -0.008364615423063073, 5.291064384285115e-05, 33533000000, 
-0.04267602425639967, 0.013828255198922359, 5.525733068381174e-05, 33538000000, 
-0.005875979442816412, 0.0057813800811197915, -0.0002407638707569152, 33543000000, 
-0.04316103584435718, 0.016335683648000476, 8.999177407323472e-05, 33548000000, 
0.008047708653245207, -0.0226698299775833, 0.0002023194227482437, 33553000000, 
-0.10411574488998485, 0.02526643103611445, 0.00010781798545607224, 33558000000, 
-0.07425093885662884, -0.01304210386031914, -7.637457131491807e-05, 33563000000, 
-0.054216982090462565, 0.010137286605992122, -0.0003532029899150799, 33570000000, 
-0.058176517633283506, -0.028280825099957555, -0.000226506752838702, 33580000000, 
0.006624225548181175, 0.005091351050293979, -6.188235699188171e-05, 33585000000, 
-0.10616095217634072, -0.0057489022563510395, -0.000254948399179403, 33590000000, 
0.4081900554959781, 0.0231018661509001, 0.00016876263874790183, 33595000000, 
-0.03563625670097365, 0.002302830870625918, -0.00011637520880086876, 33600000000, 
-0.11751083449304926, -0.01083582352092163, -1.0111420322303696e-06, 33605000000, 
-0.049852096142020255, -0.03607703162486587, 0.00035618612923580335, 33610000000, 
0.058141013986905826, -0.0006405185484681247, 1.0424221170654232e-05, 33615000000, 
-0.10052909139622576, 0.004183520624973692, -0.00016977462555064685, 33620000000, 
-0.04996755409330124, 0.0024383943149298, -0.0002869136510502893, 33625000000, 
-0.05579409288543617, -0.034298610828838415, 0.00011377773955556833, 33630000000, 
-0.07767001399879873, 0.02606916582450645, -0.00015316070239573313, 33635000000, 
-0.016144276289722446, -0.01817218226896346, 0.00015817405000620203, 33640000000, 
-0.10287351489222825, 0.036410064996010565, 3.110801480064995e-05, 33645000000, 
-0.0685778230626284, -0.012604677549341482, 2.1115410831744153e-05, 33650000000, 
-0.047112818682587765, -0.012177383220821313, 0.00040589890200940556, 33655000000, 
-0.12483349534796738, -0.01640546471125557, -7.302687711587894e-05, 33660000000, 
0.4295654858729004, -0.010170928411933757, 0.00017285831815484353, 33665000000, 
-0.05969866665491277, -0.006453279981033382, -0.00010259755430011379, 33670000000, 
-0.06293332643885217, -0.021474412191470654, 2.3827251553740495e-05, 33675000000, 
-0.045278555045797905, -0.012833019188561343, 0.0001903156095590807, 33680000000, 
-0.05238291456019382, -0.0010842458061583193, -0.00012095371351989878, 33685000000, 
-0.041109472421707795, 0.007378933108541686, -9.15904943340945e-05, 33690000000, 
-0.012541838235056382, -0.019524792999245682, 7.064744136816787e-05, 33698000000, 
-0.08729902123765419, -0.041862042982662474, 6.748565568468627e-05, 33703000000, 
-0.04888156913854969, -0.0015075744430477717, 0.00034814325087135286, 33708000000, 
-0.006391681444078857, 0.014636863365388567, -0.0003076069197487764, 33713000000, 
-0.09513863479408446, -0.02168293016618495, 2.327624435779389e-05, 33718000000, 
-0.005388312149981473, -0.007264739705936672, -0.00015418248831794543, 33723000000, 
-0.09727418836376953, -0.00990087220875272, 4.148049969476323e-05, 33728000000, 
-0.056527733555874794, 0.009986193922506721, -0.00012971608565206572, 33733000000, 
0.019888097753305134, 0.01317599678609863, -4.510398769472981e-05, 33738000000, 
-0.10186969567428744, 0.018505445655576616, -7.682003313925421e-05, 33743000000, 
-0.02599030782673365, 0.027236778482518625, 0.00011440284123696868, 33748000000, 
-0.041179158890419496, 0.0038750416272539806, 0.00017546019916389062, 33755000000, 
-0.09727433368498434, -0.010223833811842904, -0.00011083876894795663, 33760000000, 
0.24942560229050198, 0.01595126171360571, 4.622158916059373e-05, 33767000000, 
-0.13679256939810858, 0.016343090503484325, -7.591046949255126e-05, 33772000000, 
-0.04189419356798614, 0.0051025199134730765, -0.0001015287888192858, 33777000000, 
0.02172669407902495, -0.006132063073619175, -0.0002729863660477655, 33782000000, 
-0.1148197692320676, 0.010067147467913751, 0.00021933279735388014, 33787000000, 
-0.03696520780718557, 0.011319231530008191, -0.0005405393907964076, 33792000000, 
0.028836060560890716, 0.025231296794709913, 1.39804965112783e-05, 33797000000, 
-0.12773985756925682, 0.00019598276670556203, -0.0002451618233748105, 33802000000, 
-0.01867301952233838, 0.012953250326425345, 7.754457194268225e-05, 33807000000, 
-0.09981319025753521, 0.032163126192276924, 4.8487199928709234e-05, 33812000000, 
-0.046169352754007076, 6.840899687583974e-05, 0.00033623298074587677, 33817000000, 
-0.01172030259252761, 0.036806901950367885, 7.163330348169385e-05, 33822000000, 
-0.09946155357816999, -0.015921281017186054, 7.562164390756084e-05, 33827000000, 
-0.067205143156347, 0.003673885012640835, 8.949058595280037e-05, 33833000000, 
0.0006427336932069792, -0.002495102753810319, -5.6170146025198016e-05, 33838000000, 
-0.13827920659702173, 0.0042995626488052125, 0.00012030272521438181, 33843000000, 
-0.0696486522410818, 0.0075850169490319945, -0.00022330777280925822, 33848000000, 
0.000834685143207713, 0.007906144479945122, -0.00026185367404552923, 33853000000, 
-0.08613086322298281, -0.01645399721158669, -3.951666274211655e-06, 33858000000, 
-0.024141478950130024, -0.007843631027946508, 6.958847306094865e-05, 33863000000, 
0.33357975094119796, 0.014253129230532768, -0.00024284175950997042, 33868000000, 
-0.06101021865333478, 0.003891960761550659, -8.785962099534811e-05, 33873000000, 
-0.01929464257244839, -0.017362206235029216, -0.0001430012903501809, 33878000000, 
-0.1431515129568824, -0.002131991264536429, 6.007039909617517e-06, 33883000000, 
-0.06000721613269016, 0.0031720970239814735, -0.0001820233743144322, 33888000000, 
-0.050302470064517504, -0.0005246606707533594, 9.24905152869034e-05, 33893000000, 
-0.043621239814676145, 0.010437066460441303, -1.147478465368174e-05, 33898000000, 
-0.0003570948530893024, 0.007823361135425592, 0.00012824609697082947, 33903000000, 
-0.06306633151904581, -0.0019784622539684832, -0.00029219628101269515, 33908000000, 
-0.01730519419181438, -0.022528577293425375, 0.0002628580640179167, 33913000000, 
-0.11275156160293741, -0.028161416132965984, 0.0002723276890878868, 33918000000, 
-0.07433336073166011, -0.007271334066803094, 0.00015622688738215499, 33923000000, 
-0.016663847671108054, 0.00695721405956441, -0.00010121254774654822, 33928000000, 
0.22143342908797362, -0.009854714114955383, -0.00035997115609245, 33933000000, 
0.020766957831990517, 0.027512914128393805, 0.00017152727501071804, 33938000000, 
0.020527841751258435, -0.012083069258652544, 0.00023682015006806109, 33943000000, 
-0.09330871138850158, -0.02243762596096886, -0.0002331580756190309, 33948000000, 
-0.05723553182557011, 0.008084861740120223, 0.00024746096713424586, 33953000000, 
0.023623352160820343, -0.02240362314292186, -9.936150575503812e-05, 33958000000, 
-0.08746539249519142, -0.03303081980344676, 0.00017672362159002077, 33963000000, 
-0.06248499045849756, 0.020932897078903098, 0.0001877154543241469, 33968000000, 
-0.04487403939630024, -0.024826714671139026, -0.00015245440774911106, 33973000000, 
-0.06636963323948544, -0.012140236435354671, -0.00014102108733336305, 33978000000, 
-0.07930624608048424, -0.025839586380714916, -1.3656355395461943e-05, 33983000000, 
0.022016080310261574, -0.017235206471474293, -2.6072259952619903e-05, 33988000000, 
-0.09699319642889168, -0.008739068595696262, -3.784548659228956e-05, 33993000000, 
-0.05454247703370054, 0.018462437810841732, 4.311089878494227e-05, 33998000000, 
0.4028525473160635, -0.02727135943154022, 0.00010488892706846471, 34003000000, 
-0.1218072733759528, -0.0014947432937514463, -1.0570793823825139e-05, 34008000000, 
-0.04431305253245672, 0.03478019552353785, -0.00013468891040076126, 34013000000, 
0.0445214633713126, 0.007397693567501643, 7.877768539792053e-05, 34018000000, 
-0.15946383951609436, -0.009133641679122749, 0.0002794629113030866, 34023000000, 
-0.09157544665089451, -0.010615256961835356, 3.588925892603845e-05, 34028000000, 
-0.012868872687595052, 0.023229850489056597, 4.645456811254221e-05, 34033000000, 
-0.10744808628706116, 0.012127042785654907, -9.292345346802003e-06, 34039000000, 
-0.07659669207006828, 0.010644910804570579, 0.0002389956617908931, 34044000000, 
0.04761703668996295, 0.04316629514390395, 0.0004790110973505317, 34049000000, 
-0.12413777323014263, -0.011150626418915177, 1.0182183309749289e-05, 34054000000, 
-0.07522293232743497, -0.02940323158896912, -7.576837122174499e-05, 34061000000, 
-0.06257270415956528, -0.02192138764430236, -0.00047122280366936964, 34066000000, 
-0.07636007701841664, -0.015271832416730809, -5.977461924204276e-05, 34071000000, 
-0.030345929945955828, 0.007390274176796418, 0.0002790650754352357, 34077000000, 
-0.12248226722835567, -0.011061532418892283, -7.211241342167147e-08, 34082000000, 
-0.06843972884359817, -0.0073414120746921425, -6.38496179401522e-05, 34087000000, 
0.012943233475070804, -0.010990945603164912, 1.1193021899101626e-05, 34092000000, 
-0.09965820860367143, -0.029020972978368812, 3.5324409836124845e-05, 34097000000, 
-0.06925712309099522, 0.01760906716046349, 0.0002110754159044163, 34102000000, 
0.129091259498434, -0.0207738328835956, 4.20350792017284e-06, 34112000000, 
-0.03196318478350462, 0.003824013352216379, 5.60759456645232e-05, 34117000000, 
-0.062133518267341564, 0.004115564492493234, -0.00011470225823775251, 34122000000, 
-0.0577961361691343, 0.005986473622758608, -3.126622363239919e-05, 34127000000, 
-0.0857672854068236, 0.0022988843454564887, -1.9879286515333266e-05, 34132000000, 
-0.011234496151519889, 0.005271847018815461, -0.00041891868081430196, 34137000000, 
-0.07230860463631074, -0.047083154088516356, 4.8018232355184105e-05, 34145000000, 
-0.03392506801959595, 0.006043157380848968, 0.00021901683339089307, 34150000000, 
-0.020367228222891925, 0.007113341926498037, 0.00012437918096869734, 34155000000, 
-0.10387846045615186, 0.0027650857430262725, -0.00017916978856686105, 34160000000, 
-0.0662040726815232, 0.012126942937303759, 0.0002174217489224743, 34165000000, 
-0.04122229873751825, 0.00837910533273839, -5.140056947819087e-05, 34172000000, 
-0.07608337698831906, -0.002662199487488015, 7.952346187571406e-05, 34177000000, 
-0.003601322013820879, -0.0031286208579418776, -5.7561903462683945e-05, 34182000000, 
-0.09517724278818822, -0.0034069411485139816, -0.00013549533989736152, 34187000000, 
-0.03253496195693234, 0.008350519602808672, -0.00030530819785444253, 34192000000, 
-0.007981215982434628, 0.016533920370453644, 0.00034318188165622076, 34197000000, 
-0.11431442358108503, -0.004101118901961051, 0.0001793305655103627, 34202000000, 
0.2263288103436175, 0.009829145589063476, -7.084489953076747e-05, 34207000000, 
-0.004602898809581402, 0.016647118385300422, 0.00010983348244869135, 34212000000, 
-0.14189259668679427, 0.0017850928622415254, 0.000282696892517557, 34217000000, 
-0.006709375698045637, 0.010150850127307336, 0.0001013378589049916, 34222000000, 
-0.1225463914710529, 0.006025914715500842, -0.00035274264180493804, 34227000000, 
-0.041661768755897485, -0.017500921824811864, -6.944397394501621e-05, 34232000000, 
0.04473961728136, 0.04839605767065622, -0.0003590644295921867, 34237000000, 
-0.09643851329236387, -0.0027407242564644473, 0.00015393511889830373, 34242000000, 
-0.053598554473825936, 0.02903185163194012, 6.507818578746727e-05, 34247000000, 
-0.05808774881334939, 0.0088418720910269, -0.00019745965939443883, 34252000000, 
-0.0796313366367121, -0.019713544825191515, -0.00017945789016879742, 34257000000, 
-0.011821403394240046, -0.013343773749714948, -0.00022978967061499715, 34262000000, 
-0.1002174252282582, -0.01831310331212877, -0.0001247868781202493, 34267000000, 
-0.05946298727894528, -0.0006782188036341375, 8.235944194946303e-05, 34272000000, 
0.39502609768922226, -0.0269552487780108, -0.00021184173327324566, 34277000000, 
-0.13926004730092387, 2.7113280049355284e-05, 7.2871521606612655e-06, 34282000000, 
-0.020653457991576647, 0.01850800945718387, -0.0003406324647286059, 34287000000, 
0.013562581319608611, -0.0038065034235355687, -0.00014427695948342968, 34292000000, 
-0.11588318615595912, -0.0002471593347201386, 0.00013590301958027465, 34297000000, 
-0.04696953947239896, 0.008632719468243592, 6.257554026911977e-05, 34305000000, 
-0.047644929966230716, -0.00100078302083908, -0.00027783579079530477, 34310000000, 
-0.11561936752558193, -0.01103410816102303, 0.0002573173020332429, 34315000000, 
-0.014901613980649684, 0.0034682803555155777, -0.00014117751988309353, 34321000000, 
-0.10456086381464932, -0.0031796412304722953, -0.0005355605075039885, 34326000000, 
-0.06295003403147453, -0.00013237304856388368, -0.00031914517877465866, 34331000000, 
-0.012836271707722615, 0.013802191231724614, -6.7054713303375e-05, 34336000000, 
0.16509832462190382, 0.004751495274901025, -0.00022694581230357753, 34343000000, 
-0.029190113293364517, -0.0033125460420605807, 1.0404049823816055e-05, 34351000000, 
-0.12861231035502438, 0.014961210991283625, 0.0003121392061566641, 34356000000, 
0.003339118676247416, -0.018334388684108614, -0.0003395260047219546, 34361000000, 
-0.07136905513213634, -0.03227070986469515, -6.111383868218358e-05, 34366000000, 
-0.07575880016606569, -0.009941005391559503, 7.829171832105008e-05, 34371000000, 
-0.04925513685263098, 0.007691233985680217, -0.00020647438238878104, 34376000000, 
-0.06735743451899914, 0.02392086679791715, -0.00010578541041237895, 34381000000, 
-0.031950332897876695, -0.006964631914420117, 0.0001685344838960512, 34386000000, 
0.019940913665545443, 0.018594527522632492, 0.00047690395671638974, 34391000000, 
-0.08536444456101895, -0.01744557981636707, 0.00023093364080786042, 34396000000, 
-0.06035233809008516, -0.006298531203269111, -8.057384501651548e-05, 34401000000, 
-0.02817883705897714, 0.009458322860139538, -3.7146832353319285e-05, 34406000000, 
-0.09274543066372709, -0.022721175363547366, 4.245359356171342e-05, 34411000000, 
-0.005378707401132714, -0.0036740643257803162, -0.00037770211422045937, 34416000000, 
-0.10819911352536098, -0.007650488045987281, 7.974610435373165e-05, 34421000000, 
-0.023915787004574345, 0.020682902192089073, 0.00016626593077292647, 34426000000, 
-0.06398721827633497, 0.0028523771506630416, 0.0001073735937506616, 34431000000, 
-0.04277047760987335, 0.014035603025421527, -0.00026209483324754034, 34436000000, 
-0.021593920203696958, 0.006697869603750686, 0.0001219552773840965, 34441000000, 
0.3181496087805807, -0.003992828035925376, -0.0001534603442553422, 34446000000, 
0.0072002013434090675, -0.0024435512833979166, -5.6825730159133614e-05, 34451000000, 
-0.09589319270986432, -0.004109877062026443, 0.00014409526034265041, 34456000000, 
-0.06686808113385169, -0.00946691591554708, 5.9148609119526564e-05, 34461000000, 
0.01400131434481394, -0.0034121770305689395, -0.00020466248091834878, 34466000000, 
-0.08524925632759305, -0.009724660587159773, -0.00024046867586717977, 34471000000, 
-0.061133595821914535, -0.006238993201733781, 0.00026211781471997353, 34476000000, 
-0.006999014687744144, -0.012470799836010137, -2.2216625833251242e-05, 34481000000, 
-0.11518782514702212, -0.008989753868904549, 0.0003125808411039249, 34486000000, 
-0.01173827312788945, 0.008146329819824931, 9.308340589431987e-05, 34491000000, 
-0.14118923565244898, 0.005033990294277176, 0.00019546619081912685, 34496000000, 
-0.043703187629090055, 0.026708714274666836, 0.00016663516802150347, 34501000000, 
0.002709396551443668, 0.02208748376315252, 0.00023581993991494914, 34506000000, 
-0.112705115713642, 0.0005935793598319649, 0.0003330475282942653, 34511000000, 
0.25539289995001296, 0.010857846464763418, -9.028593892283718e-05, 34516000000, 
-0.1063151894197985, -0.017596305587017348, 0.00010248177876113365, 34521000000, 
-0.043528003984879306, 0.021902735573664747, -7.336273540696972e-05, 34526000000, 
0.02758199219712262, 0.010600428992525952, -0.0001728438683903436, 34531000000, 
-0.1353050076450544, 0.006474783482601615, 2.8109957578604906e-06, 34536000000, 
-0.0428903095496037, 0.022328067151517205, -7.525153615278516e-05, 34542000000, 
-0.028561379395941854, -0.0436941290072648, 6.758751948006609e-05, 34547000000, 
-0.07197312342208785, 0.00021101831906663866, -9.785159532038299e-05, 34552000000, 
0.021253902283703146, 0.016475555722720907, 0.00010425311478753631, 34557000000, 
-0.07649397639133423, 0.026257400941685907, -0.0004280769682473638, 34563000000, 
-0.027616239755444052, 0.02404078093213398, 8.417982262866618e-05, 34571000000, 
-0.15644748091301441, 0.011145579516784404, 0.0001202137752578592, 34576000000, 
-0.042385377461963455, 0.02945727695594945, 7.132792471612721e-06, 34581000000, 
-0.02101877440749309, -0.009457621753826641, 0.000255164627065755, 34586000000, 
-0.11778982510087178, -0.04167212070584091, 0.00017304847534840943, 34591000000, 
-0.02983385569569952, 0.03439634913709946, -0.00027922060708475297, 34596000000, 
-0.0033648962259775327, 0.02962443944158989, 0.00014339912140767927, 34601000000, 
-0.08448850079885696, 0.008861706175162465, -2.6183750121371708e-05, 34606000000, 
-0.06375228306980006, -0.006615974193848412, 0.00010703198302778528, 34611000000, 
0.30980169367035865, -0.01627030095440388, -0.00011858941655247854, 34616000000, 
-0.07452072410452669, -0.010712616097659819, -0.0002116016230166416, 34623000000, 
-0.003997539150976429, -0.0007776015360473605, -3.528658844951739e-05, 34628000000, 
-0.07804432110005058, -0.002317924024070836, -3.520524861041701e-05, 34633000000, 
-0.06000694359333733, 0.011103533496773652, 7.541544579833416e-05, 34638000000, 
-0.014280287541766985, -0.019582329802920635, -0.00015315043063713626, 34643000000, 
-0.04247486943554168, 0.003013969182729317, -0.00010793686924048846, 34650000000, 
0.025034948263754308, 0.005419116716580262, 0.0002302249919617682, 34655000000, 
-0.09541696567670503, 0.013371235929340227, -0.0002431942810349159, 34660000000, 
-0.07581347886888355, -0.03379018875268005, 3.6187909659605316e-05, 34665000000, 
0.017497055579508418, 0.018110169175003823, 0.0001342492098652179, 34670000000, 
-0.11994604188839181, 0.009844564549028139, 0.00029282934201467085, 34675000000, 
-0.01446226116257364, 0.01899244082838898, 0.00035492249545900854, 34681000000, 
-0.05585240369118849, -0.024926542636231595, -2.7953057770081197e-05, 34686000000, 
-0.03766763265899759, -0.03506169345137592, -0.00021902291163329615, 34691000000, 
-0.021780500722372906, -0.0096344501566997, 0.0002836220349987105, 34696000000, 
-0.08675679209764646, -0.01610941730599376, 0.00014184604997879803, 34701000000, 
-0.07464703651291535, 0.014012048792789241, -0.00038155081981079513, 34706000000, 
-0.02732651534230248, -0.017916810431847556, -2.6036018216168804e-05, 34711000000, 
-0.07194572936765653, 0.006564683071390132, -2.1332814369818283e-05, 34719000000, 
0.11337717233323938, -0.02713053389604261, -0.00028307263127239107, 34724000000, 
-0.10593636311731758, -0.021143845525666533, 2.4147011549187518e-05, 34729000000, 
-0.07084815121633707, 0.0011196250759269225, -6.191904596508843e-05, 34734000000, 
0.012378261937865207, -0.009063929207178634, 7.79341254622869e-06, 34739000000, 
-0.09947174269400115, -0.024415352237339157, 0.00014275306589706072, 34745000000, 
-0.04552591001387057, -0.024966270171465393, 0.0001370930252863345, 34750000000, 
-0.06456504168511736, -0.01944562084566446, -7.645076700343658e-05, 34755000000, 
-0.08325607703070428, 0.01151722341078527, -0.00019880452462490275, 34760000000, 
-0.02006993871162598, -0.03778358102202034, 0.0002687730483668424, 34765000000, 
-0.11065940740554617, 0.014924590363066708, -0.00012897026724568693, 34770000000, 
-0.040088489234639, 0.014130495940243891, -8.634526498935372e-06, 34780000000, 
0.39027867692462714, 0.008733162799262924, -0.00014690788956722494, 34785000000, 
-0.001780512407354027, 0.008291707397310964, 0.0003518150317105813, 34790000000, 
-0.09801813142691804, 0.0031233790123306525, -0.00023475997770442176, 34795000000, 
-0.03644577593130739, -0.003863780761358107, -0.00014672356142071883, 34800000000, 
-0.0022313274387173415, -0.007839416872094529, -0.00038197099254076836, 34805000000, 
-0.09525914501140476, -0.014570384036132396, -2.5750153820720178e-05, 34810000000, 
-0.07970213260177753, -0.0298356164006499, 0.0005023480341421387, 34815000000, 
-0.04074488180869031, 0.01758603056910793, -0.0001832987867611073, 34820000000, 
-0.0843667656311252, -0.0033598808167462552, 0.0001286670343733449, 34825000000, 
0.027804127453877114, -0.04311759039773696, 8.034512030165316e-05, 34830000000, 
-0.1237857795085543, -0.004885917392541943, -0.00011518188879338886, 34835000000, 
-0.0543929806400869, -0.01517415296370875, 0.00017350622650527295, 34840000000, 
-0.028443737515240826, -0.00012150970929542481, 0.00023148198772872722, 34845000000, 
-0.09952625476550944, 0.007247181645931067, 0.00030045684064342824, 34850000000, 
-0.06222728775951772, 0.028313630623476454, -6.25185451043262e-05, 34855000000, 
-0.07159229847973439, 0.010503407533820031, 0.00012435327139931682, 34860000000, 
-0.07616903342593344, 0.02769134771788313, -1.1949768986394815e-05, 34865000000, 
-0.016490116479903328, -0.008573581943734835, 0.00017605150788175647, 34870000000, 
-0.10684778499247553, -0.01693004251772052, -5.1868021394423246e-05, 34875000000, 
-0.06431389617403027, 0.025063142730982826, 0.0003049940792433115, 34880000000, 
0.3455205856565477, -0.0058533190077777394, -9.768262619469826e-05, 34885000000, 
-0.037018447733143424, 0.017432974852870455, 0.00028189173065748047, 34890000000, 
-0.06986552962897756, -0.027186487917178124, -6.116352675525326e-05, 34895000000, 
-0.023156933695230367, -0.01225317717042633, 3.8956523916171756e-05, 34900000000, 
-0.11522511493978228, 0.004763994761917474, -0.00020006362534304669, 34905000000, 
-0.02736207221576454, 0.011991853847078184, 0.00011667687921059001, 34910000000, 
0.007262690776749731, 0.006817736733184502, -0.00031070266745702665, 34915000000, 
-0.06398463321816505, -0.0005884137044297674, 0.0001793029410333009, 34920000000, 
-0.07390652834570038, -0.009139219876324328, 0.00011959176258723101, 34925000000, 
-0.013499726337739212, -0.0051942390177747415, 0.00026411738062159394, 34930000000, 
-0.07892280439421967, -0.001023629844849174, -9.356448713339637e-05, 34935000000, 
-0.044188487528532924, -0.0067634698378634, 0.00015251341017486918, 34940000000, 
-0.005176277400668571, -0.015568548550993962, 0.00011043443512964208, 34945000000, 
-0.09427094886689716, 0.010250361465855782, 0.00019579584046017215, 34950000000, 
0.32349746943198876, -0.001967488568958144, -0.00012831757454009838, 34955000000, 
-0.022031832615849095, -0.029532332150111647, 0.00015415590083305255, 34960000000, 
-0.11109771750152132, -0.01294540533586159, -0.00023622821814092725, 34965000000, 
-0.04237581180820749, 0.04677770811662977, 2.3480963948875076e-05, 34970000000, 
-0.0046317157070006635, 0.003563624593009176, -6.0879962160526366e-05, 34975000000, 
-0.12243707734964128, -0.02505187940479654, 0.00019282521955474568, 34980000000, 
-0.06986165737170656, 0.004198191823454111, -0.0002414674313644415, 34985000000, 
-0.024155861749199748, 0.002511943491224721, -0.00016244139898479685, 34990000000, 
-0.06969375828487272, -0.004635749756367782, -0.00018528379515882304, 34995000000, 
0.007747486572018229, 0.03015930062199934, -2.2987709226990198e-05, 35000000000, 
-0.09336048734163896, -0.013103402168158147, -0.0001964109741739451, 35005000000, 
-0.08475811319963608, -0.019734886907143402, 0.0005292565348922844, 35010000000, 
-0.005303720800530895, 0.013475643122203031, 1.640454024967689e-05, 35015000000, 
-0.11330210524728802, -0.0013996979075604468, -0.00010621484481906901, 35020000000, 
-0.02650022781066685, 0.01407689936623016, -5.03542887442586e-05, 35025000000, 
-0.08142507565846004, -0.003290873141620994, 9.584027009902361e-05, 35030000000, 
-0.06352256500941515, 8.588966474451856e-05, 0.00021950869471739926, 35035000000, 
0.0026662889220052527, 0.012776106975698212, -0.0001744268726099896, 35040000000, 
-0.0717918448843354, -0.0220379271318876, -0.0001517928013629897, 35046000000, 
-0.029781709606362176, -0.0016129551037700604, 0.0001614042808296335, 35051000000, 
0.2790061554293821, -0.01769389071893057, -2.057899918008902e-05, 35056000000, 
-0.07546028608680742, -0.006410871541768346, -0.00016599870910955937, 35061000000, 
0.014526358893896895, -0.03696855143006016, 5.2740280410579346e-05, 35066000000, 
-0.0897960133911276, -0.010351416374218672, 2.5475935311574842e-05, 35072000000, 
0.0006647552657837816, -0.008649980654446722, -2.1803455544120703e-05, 35077000000, 
-0.07155396877876125, -0.006305258723161275, -0.00013800872207300988, 35083000000, 
-0.049375079310177795, -0.0040508681247216505, 8.83843360525688e-05, 35088000000, 
-0.018880545130219716, 0.0038793465893197997, 0.00011614482479297645, 35093000000, 
-0.10032235892967842, 0.008075961466064915, -0.0001631430920360579, 35098000000, 
-0.0619779476698971, -0.014386064533222179, 0.0001442489839044351, 35103000000, 
0.0011716726650571035, -0.006404130223337077, -0.00040807677762627, 35108000000, 
-0.10250004884860213, 0.038867990969179145, 0.00016133044406403457, 35113000000, 
-0.04093243495761741, -0.004049335880947433, -0.0002555489181155001, 35118000000, 
0.2931151551463793, -0.003188320696503716, -0.0002600158153239073, 35123000000, 
-0.024674558945373997, -0.03172496590885022, 0.0002655641549554806, 35128000000, 
-0.05253406225616624, -0.010615369470289607, -0.00021093983800009303, 35133000000, 
-0.05035005595568582, 0.005746199707408645, 3.082911322061623e-05, 35138000000, 
-0.06502209130744711, -0.009785090169506584, 5.018847002905793e-05, 35143000000, 
-0.019121334204631437, -0.0012850225554735199, 1.1546923328688348e-05, 35148000000, 
-0.1191560184893237, -0.012291237703747855, 0.0002324483309014324, 35153000000, 
-0.06753527072037192, 0.0022198075631523536, -0.00037212616556632527, 35158000000, 
0.008390124779341823, -0.014525334019718058, -0.00024414044567663235, 35164000000, 
-0.10862205668096617, 0.0020943205539195103, -0.0003242879503397562, 35169000000, 
-0.044825955898909774, -0.014454315035694639, 0.00020708894885542174, 35175000000, 
-0.03906617914850512, -0.014974067733415685, 0.00020502153980898877, 35180000000, 
-0.05598816380665276, -0.0020160026184040183, 0.00023522980745309833, 35185000000, 
-0.010933985818423846, -0.002572946937372257, 0.00020566459792082197, 35190000000, 
-0.09988739400189628, 0.009315441497405567, -0.00033827897288107606, 35195000000, 
-0.02895403876659985, 0.027612896897999225, 0.00029380722980203557, 35200000000, 
-0.04689534721320284, 0.0023796375837369884, 0.0001162873541858617, 35205000000, 
-0.1087038832171019, -0.0020546194034124447, 0.0002811211257017428, 35211000000, 
-0.04138940386125255, -0.023024544433615058, 9.172465532642766e-05, 35216000000, 
-0.051251870093830164, 0.01137379379079504, -0.00011704750928916608, 35221000000, 
0.2454311332893285, -0.014404672574028658, -0.00029340333021305495, 35227000000, 
-0.02477252378963504, 0.025397327587977126, -5.954492641806725e-05, 35232000000, 
-0.12690303621952456, -0.006894934772418267, 5.499159521366562e-05, 35237000000, 
-0.035293161543180906, -0.01927120180421871, -0.00013212174674570752, 35242000000, 
0.022407682664484105, -0.002880656897170219, 0.0002422164738036731, 35247000000, 
-0.10875157988746174, 0.003434078443280567, 0.0002653849148858949, 35252000000, 
-0.02155308365639126, -0.03816146920524493, -0.0001536040238915649, 35258000000, 
-0.0938527189711039, 0.020186700040192972, 2.8402649857762206e-06, 35263000000, 
-0.05247913034078304, 0.014367179930780015, -3.851980254591834e-05, 35268000000, 
-0.004496429185457344, -0.005242858248514302, -0.0005057450094995868, 35273000000, 
-0.12973541565153213, 0.02556251895804505, 0.00040713064621900736, 35279000000, 
-0.019012460910728925, 0.013045565675804574, -7.832203584167929e-05, 35284000000, 
-0.11851317998738509, 0.010712349240883547, -0.0001730324781648435, 35289000000, 
-0.01797685437176333, 0.009623291477177415, 0.0003807894943695278, 35296000000, 
-0.0767825385472265, -0.017945056826128087, 0.00011453418153259347, 35301000000, 
-0.05722536225739576, -0.013796922560771203, -4.0051324700975234e-05, 35306000000, 
-0.011171186719536232, -5.6486025073981426e-05, -0.00031834896274323575, 35311000000, 
-0.0959819157120629, -0.0017435740494998117, 0.00011687664486059472, 35316000000, 
-0.06585076955222506, 0.004823107640271034, -0.00010327708144125381, 35321000000, 
-0.026724963251888237, 0.012646536366910047, 0.0001635938284552501, 35326000000, 
0.31685219914475754, 0.02579978322396964, 3.599994588051552e-06, 35331000000, 
-0.043540840927642196, 0.02206428512455573, -0.00019888228654588232, 35336000000, 
-0.13246104300994502, 0.016507527976165462, -7.827179196849542e-06, 35341000000, 
-0.02285212544618035, -0.01727761716433629, 0.0001757212745286734, 35346000000, 
-0.02159228223984289, -0.023368656124300217, -7.339270901617939e-05, 35351000000, 
-0.11623714643722263, -0.004925830655084986, -2.1951174742663163e-05, 35356000000, 
-0.00023268406365088354, 0.04810666953381094, -0.00022835340978034712, 35361000000, 
-0.07856363699796393, -0.005438145998800199, -7.738425763925337e-05, 35368000000, 
-0.04449431315606006, 0.023123951650558548, 0.0003896181192218872, 35373000000, 
-0.003206239305344259, -0.04005351626593466, 0.00029837837777063386, 35378000000, 
-0.061456032917049125, -0.005195914254284648, -7.862101904617743e-05, 35386000000, 
0.013966887836877905, 0.013986093323105738, 0.0001406465448604977, 35391000000, 
0.2872254312502533, 0.008067893137417348, 0.00015925426347190464, 35397000000, 
0.01617063361164922, -0.010686618427254897, 7.111119013152233e-05, 35402000000, 
-0.10052624733229945, 0.008145266110428078, -0.0002451149840376132, 35407000000, 
-0.07281697976470085, -0.021112334042536266, 0.0003788718626750178, 35412000000, 
0.008431002474889935, 0.01532513976898353, -0.00019804677479585587, 35417000000, 
-0.1414540451794961, 0.023506850818685154, 0.00041536789708986337, 35422000000, 
-0.061533725624086266, -0.018132192689411766, -0.00010921370130726926, 35427000000, 
0.006752544123845118, -0.004546752730981005, 0.00012511535886522925, 35432000000, 
-0.08356695632336268, -0.0028785439439221036, -0.00014936380730340177, 35437000000, 
-0.01762383265938628, 0.042290411662309735, 0.0003900335335338474, 35442000000, 
-0.11981622439806838, 0.008849781873532988, 6.77918522014546e-05, 35447000000, 
-0.024564569718670968, -0.03279462203078901, -4.434242917164666e-05, 35452000000, 
-0.03412789591094767, 0.0011644398243263868, 0.00015374878238432428, 35457000000, 
-0.0870372106456152, 0.015025567553020393, 0.0003934182977889787, 35462000000, 
0.26086902195681805, -0.009137888716955178, 6.315022771530335e-05, 35468000000, 
-0.15176935376182782, 0.014207938921127369, -0.00020456083687547008, 35473000000, 
-0.059044692328731406, -0.011124866071000153, -0.00015235177580570088, 35478000000, 
-0.005106142772747905, 0.005479643049908275, 0.0002444873036205627, 35483000000, 
-0.12291569355592585, 0.03450991140924799, 0.0001879570094693875, 35488000000, 
-0.037478404904031905, 0.010410539535571311, -0.0003073417365205743, 35493000000, 
-0.06765224666528082, 0.011147710790016826, 0.0002565395545348375, 35498000000, 
-0.07938637158105255, -0.015941003382488644, 1.1884748302856733e-05, 35503000000, 
0.02689560365977262, 0.012373909963128411, -7.479474486666699e-05, 35509000000, 
-0.10451763985196551, -0.021259952516703397, -3.3961270146703444e-05, 35514000000, 
-0.05421782029289874, 0.028900020692476543, 9.104116878430131e-05, 35519000000, 
0.046046775535228075, 0.017814440164273047, 0.0001819358009844971, 35524000000, 
-0.09864223117032711, -0.0010888006600076625, 0.00026102127804401956, 35529000000, 
-0.005906533553190055, -0.006910817122904076, 5.4667022770522655e-06, 35534000000, 
-0.10908803748212954, 0.012795181728388257, -6.150204409572353e-05, 35539000000, 
-0.059875961729258395, -0.0011016694928117229, -6.445220862057584e-06, 35544000000, 
-0.03187853985199138, -0.007703643790281597, 7.139426408573181e-05, 35549000000, 
-0.1015141921446414, -0.016067705535194782, -2.819764530668638e-05, 35554000000, 
-0.009660138184686827, -0.006686916157841508, 0.00010498443626266144, 35559000000, 
-0.10470103600183396, 0.026794484777533358, -0.00011123488268377053, 35564000000, 
0.3401559640529242, -0.007301449274960448, 0.0002209447873454727, 35569000000, 
-0.007244215236794713, -0.016456685186812092, -0.00012243766502753806, 35574000000, 
-0.12114483580804217, 0.015398547859550787, 0.000523099812946712, 35579000000, 
-0.04898878429418324, -0.007691934781445548, -0.0002248303443366474, 35584000000, 
-0.04962414684788582, -0.01996197006195, -0.0002249077597881458, 35589000000, 
-0.07141865216947275, -0.017058406713479392, 0.00015756306677842328, 35594000000, 
-0.003123877422184735, -0.03558097266478988, 1.5704253348529568e-05, 35599000000, 
-0.0814566248627593, -0.022418364973692772, -2.8705188619884726e-05, 35604000000, 
-0.05113700499586642, 0.01529513111140782, 0.000408688346072946, 35609000000, 
0.005522548942535732, -0.03570963441219905, -5.9813791598133104e-05, 35614000000, 
-0.08959432138430258, -0.0031649001810899963, 0.00015161274058459926, 35620000000, 
-0.01809671253139273, -0.03764723870601114, 9.125372997940523e-05, 35625000000, 
-0.08781775486582302, -0.002721378408822257, 0.0001768953307310736, 35631000000, 
0.4595243330067499, 0.0013616725002602468, -0.0001925352852510296, 35636000000, 
0.004129195088791723, 0.0007714412764982505, 0.0002726674320731575, 35641000000, 
-0.11197758552709981, 0.023003445386522436, 6.640338051734574e-05, 35647000000, 
-0.03572275173694312, -0.01812177196795606, -0.00012742463404316455, 35652000000, 
-0.16273593809429315, 0.009355137284214735, 0.0002730499603486858, 35657000000, 
-0.027085120732679147, -0.020413809111949795, -0.00026804146372392027, 35662000000, 
-0.056016695539958895, 0.0025596809218327294, -0.00023035268461669056, 35669000000, 
-0.0737178044273063, -0.013496545871073289, 0.00026676380300624217, 35673000000, 
0.000552373695126028, 0.006496570853357355, -0.00016111017523216115, 35678000000, 
-0.1078078538383909, 0.01657341705788099, -0.0002949223850624934, 35683000000, 
-0.06720107901018903, -0.0012641701750442486, -8.587361711353071e-05, 35688000000, 
0.008686607071940636, 0.04628634561541122, 6.557284227903423e-05, 35693000000, 
-0.047630334883985104, -0.02198667791149317, 3.0465126265050492e-05, 35698000000, 
-0.11162520180971738, -0.0007367899854281665, 6.575888703522944e-05, 35703000000, 
-0.05036599097946045, 0.012207427177893897, 1.7568554079218062e-05, 35708000000, 
-0.09779749162367002, 0.009095725326128904, -0.00014857657738019694, 35713000000, 
-0.04663594337677744, 0.015641453617930106, -8.060120346575502e-05, 35718000000, 
-0.04513854070860947, 0.0297643634884909, -8.308218516163013e-05, 35723000000, 
-0.060064757863681977, -0.0021602686862265156, -1.7073167734045522e-05, 35728000000, 
-0.001758572357083498, -0.004777122974159179, 6.085916974603639e-05, 35733000000, 
0.3138964118630294, -0.012456455462936288, -6.195599384649291e-05, 35738000000, 
-0.0766695430811068, -0.010954372192323387, 8.347392181830657e-05, 35743000000, 
-0.04557200692621251, 0.0277657785007723, -0.00016812669819462388, 35748000000, 
0.031673151817577225, -0.004026371838154885, -0.000303830401095419, 35753000000, 
-0.12072463698941506, -0.013422498552673006, 3.240493342515127e-05, 35758000000, 
0.008797014212921476, 0.004568570451006683, -0.0001012327156331317, 35763000000, 
-0.12122195557988374, -0.02464821025128828, 0.0002693184282214061, 35768000000, 
-0.04320024685050591, 0.006789384177090104, -6.900384831688436e-06, 35773000000, 
-0.03463747460674807, 0.007592263401930549, 0.00013680296626050826, 35778000000, 
-0.07887125589733263, -0.013297015942295095, -2.941996349943262e-05, 35783000000, 
-0.03068890468126653, -0.006050143841674439, 5.794239812599758e-05, 35788000000, 
-0.030166237094199095, 0.00835008829518013, -2.6636419672443665e-05, 35793000000, 
-0.09244697158415426, 0.011641773363067789, 0.000272320983196823, 35798000000, 
-0.04995253151064381, 0.022416990138535705, -3.17493308701746e-05, 35803000000, 
0.26224287881342806, 0.010369376583947506, -0.00010560070743908868, 35808000000, 
-0.13836496019194636, 0.009221472555437385, -0.00014621149192362777, 35813000000, 
-0.06613382145831322, 0.00838874773032533, 4.963518681094062e-05, 35818000000, 
-0.07132953391703777, 0.009429335049073114, 0.0001277052807178327, 35823000000, 
-0.04912072169330614, 0.021096777568043706, -0.00012797521069676142, 35828000000, 
0.00478067407713083, 0.003783537684345903, -6.876075465405805e-05, 35833000000, 
-0.09218556136024342, 0.042090328475464206, 7.70802359527992e-05, 35838000000, 
-0.05565353744717131, -0.005513933599372654, 0.0002349158933136745, 35843000000, 
0.025994716930689696, 0.012361115419409447, 0.00011125616583957334, 35848000000, 
-0.12433236383453386, 0.003628897399920299, -9.678861839166801e-05, 35853000000, 
-0.04667895372219973, 0.009137635389340195, 0.00027433865528705303, 35858000000, 
0.003568586051112592, 0.032038327896136976, 3.071666591591172e-05, 35863000000, 
-0.11805492724695338, -0.022366703308641638, -0.00012598842006717695, 35868000000, 
-0.047309267771677474, -0.00015809683056098754, 7.120640108250902e-05, 35876000000, 
-0.10752397578908057, 0.01105330539425622, 0.0001788096470890294, 35881000000, 
-0.0615078789429335, 0.01378000113471799, 5.5719132221219575e-05, 35886000000, 
-0.04503894474230296, -0.024235419713484124, -0.00018422756790318628, 35891000000, 
-0.10404025553733909, 0.021026060532258584, -8.624883285761505e-05, 35896000000, 
0.012223489524317753, 0.01386824445606167, -0.00018715915588206285, 35901000000, 
0.2921750404978812, -0.013853451563728527, -0.0001310502394319526, 35906000000, 
-0.027084321275650688, 0.026099601955712586, -1.1519373922856587e-05, 35911000000, 
0.023853341616845884, 0.022718832359091917, -0.00014378021776047232, 35916000000, 
-0.09472934103545683, 0.011457567003077944, -8.190011558050625e-05, 35921000000, 
-0.04930473539385262, -0.014288352424214714, -0.00011941639470609341, 35926000000, 
-0.05384950732319196, -0.0019595560242834514, 0.0003751425062542798, 35931000000, 
-0.08011835213082732, -0.04041017912648716, -0.0003300193792127623, 35936000000, 
-0.024029109489734638, 0.02317457558993884, -0.0002814114898945173, 35941000000, 
-0.1295530978763881, 0.06230860507831413, -9.79038322079909e-05, 35946000000, 
-0.05115414805784896, 0.0070775798215970374, 0.0002088582243594764, 35953000000, 
-0.07038542031495304, 0.0031155844841003026, 7.672222857816586e-05, 35958000000, 
-0.05368435118513755, -0.04106671790834637, -8.958456174834236e-05, 35963000000, 
-0.05776470272298474, -0.0002058814204920278, -0.00011125903117345202, 35969000000, 
-0.025836440175673256, -0.024438314508044012, 0.00016403119020840805, 35974000000, 
-0.019083183747478236, 0.0186502118474477, 0.00012319612333926803, 35979000000, 
-0.04385634302462695, 0.008747198192404495, 7.824817306663893e-05, 35984000000, 
-0.08692314420013822, -0.0031988296829401287, -9.159290855547063e-05, 35989000000, 
-0.020268320658759498, -0.010876297019273144, 7.80140636184973e-05, 35994000000, 
-0.05941562900217039, -0.002941402616103119, -0.0001160390849225459, 35999000000, 
-0.04095090867962148, -0.0010930694311696168, -3.961896511911984e-05, 36004000000, 
0.3788874039985876, -0.004109812250335429, 7.345588462037445e-05, 36009000000, 
-0.13184702447163973, 0.00845456938168234, 0.000132378777613021, 36014000000, 
-0.07179501035495299, -0.01240741285190786, 8.40873220628654e-05, 36020000000, 
-0.04087527537881916, -0.011107288774426302, 0.00018975200826077318, 36025000000, 
-0.047872794891559343, 0.022510297793577314, -0.0002022630555173818, 36030000000, 
0.00453429223017407, 0.036361972403530694, 3.0391066840013106e-05, 36035000000, 
-0.138469841879743, 0.00044000081296098885, 0.0002888351945752304, 36040000000, 
-0.07269296542728375, 0.026345259460850756, 0.00019240573361100846, 36047000000, 
0.015853327367634545, -0.011289525746912289, 0.00027125617791225924, 36052000000, 
-0.08795209802670842, 0.018864027836564285, -2.1255680444547938e-05, 36057000000, 
-0.021119995377917623, 0.006519675690676848, -1.6505566705888866e-05, 36062000000, 
-0.12008574081025276, -0.004376782204213437, -0.00016482974812266778, 36067000000, 
-0.05783317873659688, 0.04913869581264443, 8.780974776465266e-05, 36073000000, 
0.29397888592012467, 0.006272697810676945, -6.044305817946521e-05, 36078000000, 
-0.058624352715322375, 0.01680685883465878, -0.00031454289023693377, 36083000000, 
-0.0325420893834023, 0.015213790598217973, 0.00013928007585867897, 36088000000, 
-0.1038979600258755, 0.0030732801876248096, -9.534898082151013e-05, 36093000000, 
-0.048398066241380155, -0.001947344367560852, 0.00030663197940301645, 36098000000, 
-0.014327904897110203, 0.011272311758171172, 0.0002530757202601623, 36103000000, 
-0.10984151785243541, -0.0020254767940086375, 0.0002520532480448141, 36108000000, 
-0.03846358086753516, 0.0391214314876914, -8.834388078985787e-05, 36113000000, 
-0.03615511631600982, 0.00519256897695242, 0.0001582953230015686, 36118000000, 
-0.12380434524820425, -0.0037011128614621762, -0.00047890041089217503, 36123000000, 
-0.06094089322188403, 0.019212726132472782, -0.00010138382071187556, 36128000000, 
-0.00774591855380753, -0.005465186557836244, 0.00023422601642946272, 36133000000, 
-0.11231124111655007, 0.016670143150478284, 0.00012331516557045267, 36138000000, 
-0.06149051173497952, 0.01189884207593967, 6.59074811865605e-05, 36143000000, 
0.027971498176821825, -0.008628669458052327, -1.5115520087897566e-06, 36148000000, 
-0.09647111141353222, 0.024771831176407345, -5.1645234443733433e-05, 36154000000, 
-0.028244924723071475, -0.006499096590070573, 2.4650609026452214e-05, 36159000000, 
-0.10222136213136548, -0.020707532682502083, -6.724636478291003e-05, 36164000000, 
-0.06573343109581488, -0.004698337905419721, -0.00021208264459008085, 36169000000, 
-0.05802838807660609, -0.05174594126362617, -0.0001540453504310361, 36175000000, 
0.5769210638608397, 0.03526694121792549, 0.0001586454864799593, 36180000000, 
-0.024618699304362175, -0.011232968166337709, -1.4054896914908661e-05, 36185000000, 
-0.10467783824445864, 9.927098116277162e-05, 0.00013610598478609344, 36190000000, 
-0.029604356118202405, -0.006470147538243905, -0.000530325812519476, 36195000000, 
-0.00973967082018655, 0.006325747163114662, -0.00027778718101738526, 36200000000, 
-0.12401531400188845, -0.006035464461141255, -4.158037154175448e-05, 36205000000, 
0.0015734754588498795, -0.012842659240722431, -0.00027328679938436743, 36213000000, 
-0.13209160684818985, 0.006661443889571453, -5.465478102212225e-05, 36218000000, 
-0.0008863103797678556, -0.004739545674741823, -0.00023231346619669846, 36223000000, 
-0.0899950234269796, 0.005195635520451686, 5.226990444881669e-05, 36228000000, 
-0.056682423679592184, 0.00597479154978583, 0.00012526555907244941, 36233000000, 
-0.011341211039555626, 0.0037071997022446413, -9.688642204777369e-05, 36238000000, 
-0.07125903584664968, 0.020656212941817822, -0.00024478210546421633, 36243000000, 
0.27845081851663506, 0.009090742370715239, 0.00032866583724058276, 36248000000, 
-0.057229224062663044, 0.01969907013845307, -5.823511495404292e-05, 36253000000, 
-0.04885332379391137, 0.017411280221904357, 3.4896461089974774e-05, 36258000000, 
0.0073293334138876155, -0.02883872982120417, -0.00018412167548753337, 36263000000, 
-0.11538414790770972, 0.04104792948846366, -0.00013182214335084614, 36268000000, 
-0.06184403162220211, -0.018315605475122745, 0.0001338055232096132, 36273000000, 
0.027186637611567768, -0.040224620860673105, 5.83090320598133e-05, 36278000000, 
-0.08157782590889379, 0.012871563078526953, 0.0001438419702662094, 36283000000, 
-0.01237801681088582, -0.007701944259600465, -0.0003255801212566917, 36288000000, 
-0.12561233866525795, 0.022245609849573876, -4.94234979223319e-05, 36294000000, 
-0.07692759273970384, -0.010748016875298217, -0.0003750927122821843, 36300000000, 
0.02209372671813536, 0.002172067599251275, 0.0002136209074526989, 36305000000, 
-0.1040606245846091, 0.001980274375464049, 0.0002463248553053574, 36312000000, 
-0.060802093298874295, 0.019205926307796817, 0.0001701125974119344, 36317000000, 
-0.03963710352985256, 0.0024682947459396384, -0.00013266295268668795, 36322000000, 
-0.06137867287266095, -0.021935198624029102, 0.00019679960943714788, 36327000000, 
0.010029801426132239, -0.02019410949308314, 0.00011583053270583545, 36332000000, 
-0.11604489749705313, 0.0042989786029800975, 0.00036125344736703634, 36337000000, 
-0.05290271619374149, 0.03317334936943814, -0.00014799442185875773, 36342000000, 
0.01003429501169157, -0.02085838651070922, -8.957247722045727e-05, 36347000000, 
0.2663246664929504, -0.013554973613244418, 0.00014590969612031398, 36352000000, 
-0.0191321761995303, -0.020770304295478152, -0.00032360184452074237, 36358000000, 
-0.051763855547407304, 0.0604691527808298, 3.121619200392762e-05, 36363000000, 
-0.10717507449385982, 0.0016022707486633616, 0.0002155301730159271, 36368000000, 
-0.03640650040045437, 0.0008100766960148305, -2.4576725198816543e-06, 36373000000, 
-0.07628091183883226, 0.007631828936341011, 0.00014449866581324063, 36378000000, 
-0.0631393629928344, -0.0029601219240843646, 0.00022707912771880172, 36383000000, 
-0.01252696774349511, 0.01675802494131068, -9.790802165576144e-05, 36388000000, 
-0.07104575297815797, -0.010892125275479133, 0.00010171896652226037, 36393000000, 
-0.06478870557766639, 0.009067159451065922, 0.0002438980292047103, 36400000000, 
-0.07807198030136038, 0.022654818208897615, 6.633453658429974e-05, 36405000000, 
-0.042269636880005096, 0.010149948487166613, 0.00041981594747787413, 36410000000, 
-0.028012803238073473, -0.0025976933464450245, 0.0004334115253115096, 36415000000, 
-0.09263557549799088, 0.020392635774682775, -0.0002288707960343063, 36420000000, 
-0.06561397540823498, 0.02290073873710633, 0.0003068303664879463, 36425000000, 
-0.05842100313783293, -0.013653385942995935, -8.258176334941166e-05, 36430000000, 
-0.0772914920699048, 0.011203092803881747, -2.068718680625911e-05, 36435000000, 
-0.07242637800125826, -0.016434258968943072, 0.0001699269689959473, 36441000000, 
-0.03118557711395497, -0.005202375136308212, 0.00014408040564395762, 36446000000, 
0.30400111952932357, -0.002210917125596602, -9.161801311593206e-05, 36451000000, 
-0.06922903329420543, 0.011888652033973228, 0.00010460703808744651, 36456000000, 
-0.0712765562329487, -0.03113055140250867, -0.00010640599424865705, 36461000000, 
-0.019909860984499816, 0.003209617766175111, -0.0001858493787263017, 36466000000, 
-0.11365000527540105, -0.0009160835064925359, 0.00035257800758309413, 36471000000, 
-0.05882769073302895, -0.0017015248692350778, -0.00015235413345602547, 36476000000, 
-0.010659505594797943, 0.02447272499651072, 4.334089904165976e-05, 36481000000, 
-0.10328672368205265, 0.0015754664901990677, 5.1916985917981315e-06, 36486000000, 
-0.05975565114512812, 0.004300545214522112, 2.5043397726549175e-05, 36491000000, 
-0.005526872505892113, -0.014308918909592315, -0.00031175686278412203, 36496000000, 
-0.13980528308992612, 0.008047419378602082, 7.331825759858667e-05, 36501000000, 
-0.030371357191915308, 0.0017560458378126612, -1.1126015137380229e-05, 36507000000, 
0.02446421286276263, -0.018461188664201243, 3.803038123998674e-05, 36512000000, 
0.15336462703476172, -0.022185355174355086, -7.247964145062255e-05, 36518000000, 
0.013388823766341719, 0.003714601061167899, -0.0001819503108297266, 36526000000, 
-0.011928979519323035, 0.014342708477695199, -9.30997737827178e-05, 36531000000, 
-0.11341601906418675, 0.0012896547818440395, 4.9707296272178615e-05, 36536000000, 
-0.04840196410002559, 0.014298022180020228, 5.4300745910428264e-05, 36541000000, 
0.007409082433986858, 0.019636821829350823, -0.00027179810515687655, 36546000000, 
-0.09910970886526224, 0.01861787021259021, -0.0002889609998696683, 36551000000, 
-0.006675413849137407, -0.003164150879682197, 0.0004302387906985382, 36556000000, 
-0.1290707345528039, 0.03933357982857837, -7.29233373007241e-05, 36561000000, 
-0.01911476993720223, -0.007313019022942156, 0.00017281847051670628, 36566000000, 
-0.03145757520073703, 0.0012171029974889524, 0.00018893167527214122, 36571000000, 
-0.1087693327113284, -0.0020028348941732036, 1.8922662942284747e-05, 36577000000, 
-0.0007706365467238657, -0.022897008597350322, 6.584969065621454e-05, 36582000000, 
0.3904770948413986, 0.014093781184353445, 4.897670270683145e-05, 36587000000, 
-0.06612208351106146, 0.03528064150869045, -0.00040653510523873973, 36592000000, 
-0.024291526969313255, -4.769066823902019e-05, 0.00020417916921579516, 36597000000, 
-0.028779406727884267, 0.03376116958634765, 0.00017453920031054856, 36602000000, 
-0.050975302447178475, -0.01276281316981372, 2.5410419159760085e-05, 36607000000, 
-0.004918257805765472, 0.00903656092835802, -1.9452803471170625e-05, 36612000000, 
-0.12487624739684937, 0.02251725962448113, 0.0003058062994280192, 36617000000, 
-0.04950933930971609, 0.026125443741581968, -0.00014225651240545135, 36622000000, 
-0.012008733075685011, -0.01251646431597837, -0.00011918337828688557, 36627000000, 
-0.0851362412168416, 0.004344615612680618, -3.900224976074764e-05, 36632000000, 
-0.04009271243737848, 0.0067154496564610046, 0.0004981837267847126, 36637000000, 
0.05594782745008367, 0.011918499944202602, 1.102789547072325e-05, 36642000000, 
-0.0636462579741129, 0.017734508210108108, -5.454930535117435e-05, 36647000000, 
-0.0006935057842870421, 0.015367038732300886, 0.0003778950485138827, 36652000000, 
-0.07760351568628543, 0.013720077494383724, -0.00014586286747682339, 36658000000, 
-0.0446811315883234, -0.018817580705085282, -8.528500009363573e-05, 36664000000, 
-0.014218202680579928, 0.03777469173896455, 0.00018830127004942687, 36669000000, 
-0.07602065571014428, -0.0210724338735386, -0.0001941599755050541, 36674000000, 
-0.049417261542896045, -0.010402391752683655, 3.69344583753097e-05, 36679000000, 
-0.019771788793489113, 0.019921564684230408, 0.00019958148170684704, 36684000000, 
0.4231750676586373, 0.025180951996958564, -8.020585736657476e-05, 36689000000, 
0.02660155471145493, 0.020029708558030462, 8.786388597823931e-05, 36694000000, 
-0.09458678011368638, 0.0028323995273234074, -0.000331283342000947, 36699000000, 
-0.02285858518873899, -0.0077298240554722125, 0.0004528077659361003, 36704000000, 
0.009766529056862707, -0.019725619062047322, 9.11125445468625e-05, 36709000000, 
-0.10177558020049274, -0.0009564449978041354, 2.7084403243684988e-05, 36714000000, 
-0.06469596968589948, 0.012199865145414733, 0.00010471106017000027, 36719000000, 
-0.038537063142421404, 0.0324060732429155, 4.923094792342785e-05, 36725000000, 
-0.08678744251945769, 0.001828127112370707, -5.7561031526252115e-05, 36730000000, 
-0.0005008973857154727, -0.01304148547400363, -0.00023980004941096593, 36735000000, 
-0.0835304152006352, 0.006580711626998416, -1.4743683305905415e-05, 36740000000, 
-0.08437211407448937, -0.00024296763496053605, 0.00017448435864879044, 36745000000, 
-0.03968491174859685, 0.007947935618005952, 0.00012166420986535936, 36750000000, 
0.27222343875994715, -0.010399385487640762, 0.0003575501796857376, 36755000000, 
0.04724348551256673, -0.00819701416629756, -0.00016791030706987586, 36760000000, 
-0.06320666856245752, 0.004979654685502996, -0.00016635523627997215, 36765000000, 
-0.07159477107575675, -0.00346391524477454, -0.0003478245978748026, 36770000000, 
0.00503747416416025, 0.0010328168861315167, -0.00034196682148891495, 36775000000, 
-0.14792348605208766, 0.010775340910030396, 0.00014619908048509717, 36780000000, 
-0.00245504991422873, 0.008778821314388176, -1.009873245203752e-05, 36785000000, 
-0.11427595235643812, 0.02801924386511648, 0.00029698762833147286, 36790000000, 
-0.07061841250567708, 0.006325933388796336, 0.00010366856629860702, 36795000000, 
0.008095779605497653, 0.026632347247681674, -6.914260222278594e-05, 36800000000, 
-0.11103807039270842, -0.006827070656082272, 0.0001725257043001418, 36805000000, 
-0.06424916422939243, -0.03114114232810209, 7.968575844486128e-05, 36810000000, 
-0.03879175965669688, -0.01126821025154298, 0.0003096324040879142, 36815000000, 
-0.06899912534275224, 0.004789495491526188, 1.198335847144535e-05, 36820000000, 
0.4091298416121232, -0.026866705981288184, -9.132190103742e-05, 36825000000, 
-0.13457268212467377, -0.013403047580633978, 4.602663702616386e-05, 36830000000, 
0.002782114193943506, -0.02267714534256516, 0.0002406663767413263, 36836000000, 
-0.09554520345022617, -0.004543593639585584, 0.00024438357766757554, 36841000000, 
-0.07663136476583787, -0.0059113131242519885, -0.00025455210409928514, 36847000000, 
-0.016141187533324913, 0.022686484520014708, -0.00019312569123405049, 36852000000, 
-0.10353761865013306, -0.010678702715737317, -1.7540196912909943e-05, 36857000000, 
0.012451381718371405, 0.013582599254404894, -4.603442770328241e-05, 36862000000, 
-0.12201768833035537, -0.01751305286681305, -0.00021010971439545164, 36868000000, 
-0.08250265716959332, 0.0023593331539967536, 0.00011468907637703528, 36873000000, 
-0.014026871232842915, -0.018400063287392642, 0.00029925467080526425, 36878000000, 
-0.11598432637480585, 0.005960807133513052, 0.00021714760362057117, 36884000000, 
-0.04156992920708375, -0.005392328581381834, -0.0002313706521492351, 36889000000, 
-0.08275360044221058, -0.0211027866477993, -6.143134376212187e-05, 36894000000, 
-0.02540718724211489, -0.009472700997065295, 0.00033134391304965157, 36899000000, 
0.016229438041741515, -0.004008333825669447, 2.2211236991385075e-05, 36904000000, 
-0.10479263341752246, -0.013207986516693632, 6.314209162605065e-05, 36909000000, 
-0.07378521289253478, 0.009946164754628237, 0.00022860723946786584, 36914000000, 
-0.06625446118339808, -6.253478793043633e-05, -0.0002581405913112086, 36919000000, 
-0.0864839798721643, -0.044640321427507804, 0.0003951286063549976, 36924000000, 
0.1995692749325317, -0.009747279188182958, -0.00016691355585757756, 36930000000, 
-0.15864314928375572, 0.011336752027189657, 5.161874058955815e-05, 36935000000, 
-0.056193188342009384, -0.026148700114213483, 0.000470781490736668, 36940000000, 
0.005968511331947646, 0.0146497396048335, -6.667360732758071e-05, 36946000000, 
-0.09056284561291386, -0.006608930986243422, 9.57894451024123e-05, 36951000000, 
-0.01953605039411195, 0.007437477403581607, -9.698413718460851e-06, 36956000000, 
-0.10431044414750369, 0.0032641786053867524, 3.402414502139044e-05, 36962000000, 
-0.026220230140381995, -0.015917376144844442, 0.00013327859132032535, 36967000000, 
-0.10385384056617224, 0.019253478166320146, -0.00017831591593299803, 36972000000, 
-0.057802679900530556, -0.016050612106085636, -0.00020820197475109994, 36977000000, 
0.009781046544100915, -0.0010419628447622977, -0.0001879253732283786, 36982000000, 
-0.0855243269676868, 0.04008035382251529, 0.00022077831682435227, 36987000000, 
-0.028987388546275767, -0.012302406464321713, 0.00037055260889038577, 36992000000, 
0.39224531117913464, 0.0015320869476066654, -7.638701850829053e-05, 36997000000, 
-0.1478854075385721, -0.01027223540782648, -0.000127977181288174, 37002000000, 
-0.0829630485015079, 0.023699180490242507, -9.575079216872372e-05, 37007000000, 
0.02512095083736734, -0.01265748757354176, 5.710075635916708e-05, 37012000000, 
-0.11928493724033287, -0.0198660293811011, -0.00010907207960140628, 37017000000, 
-0.04969581868557957, 0.008934774818400524, -2.4228725098624402e-05, 37022000000, 
-0.06881969023950697, 0.017710597863048506, -0.00015379919511235968, 37028000000, 
-0.04579312588775366, -0.0008658627301942406, -0.0003053432636907337, 37033000000, 
0.004591040743375071, -0.00833823429706202, -0.0002974217801616105, 37038000000, 
-0.08190801323334493, -0.027558671260885022, -0.00022929381631619976, 37043000000, 
-0.07209976762536639, -0.010312346505184531, -0.0001424842801173515, 37048000000, 
-0.012782503820227763, -0.004146205503104807, -0.0003888898765816021, 37053000000, 
-0.09083316462093863, 0.005635669942086315, -4.523504423184351e-05, 37058000000, 
0.3955559019185737, -0.0014313626074999722, -0.00016262325089486576, 37063000000, 
-0.07392393928739219, 0.006533472026284969, 6.719338587892241e-05, 37068000000, 
-0.05762029740840557, 0.011733363861515637, 0.00023410462847957373, 37073000000, 
0.011840917886700466, -0.01977903404167355, -5.4381294893423916e-05, 37078000000, 
-0.08913716554317073, 0.017812478200732125, -6.230298900921318e-05, 37083000000, 
-0.05415246279082767, 0.03468269921237781, 2.8897023045773063e-06, 37088000000, 
-0.04457382255828812, 0.018107263629045675, 0.00018282728813151186, 37093000000, 
-0.05163873089178883, -0.006343363873876487, 9.748587029159106e-05, 37098000000, 
-0.043722326916107564, -0.005159077558137809, -3.739147384664076e-05, 37104000000, 
-0.022327429987146916, -0.004538060570494817, -0.0001720953393377369, 37109000000, 
-0.0742184613967321, 0.0011973680737765039, 8.650084427003706e-05, 37114000000, 
-0.07163676534895566, 0.00428927832843513, 0.00044238758991206075, 37119000000, 
-0.03927472329237688, 0.007568092917513162, -0.0001059509339355984, 37124000000, 
0.30782947863836985, -0.012037779116956616, -0.00010776836395703854, 37129000000, 
-0.12743571229893697, -0.02513167879995489, -5.0276495985144954e-05, 37134000000, 
-0.04354401599690652, 0.019142285828974058, 7.191180680716609e-05, 37139000000, 
0.011570937691837889, 0.017790288328439777, -1.9633085850700714e-05, 37144000000, 
-0.12249001403893493, -0.005674667205355114, -0.0002606088639489483, 37149000000, 
-0.05907516623643869, -0.01576476404027386, 0.00016398035356158763, 37154000000, 
-0.008801066143394397, -0.017429171098811636, 0.00011000907625745648, 37159000000, 
-0.10501994221977475, -0.028091544413821796, 0.00011943221107090657, 37164000000, 
-0.06191836135637399, 0.002785299466113565, 0.0002397020131507909, 37169000000, 
-0.00726101607246523, -0.007427559165426647, -7.712792672118342e-05, 37174000000, 
-0.09162050128586632, -0.0013376048746615336, 0.0001646684532638178, 37179000000, 
0.005162891158715946, 0.019351356351098747, 0.0001619775485864895, 37185000000, 
-0.10458685626835112, -0.003138697733260945, 0.0001731595672885149, 37190000000, 
0.16544551248477912, -0.01978813653216151, 6.348154419508346e-05, 37200000000, 
-0.0707171319563384, 0.021144159614875552, -0.0002259700277902597, 37205000000, 
-0.07884374148008771, 0.025039413198284913, 0.0001025237333887466, 37210000000, 
-0.044521838086148194, -0.0017705654806081082, 0.00023964284350108854, 37215000000, 
-0.06006362420549437, 0.002279207869210211, 0.00019953324102011915, 37220000000, 
-0.0028680790116567324, -0.00266145997618949, 0.0002448508606187803, 37225000000, 
-0.11634209417068646, 0.0008271629791884794, -6.943699547729325e-05, 37230000000, 
-0.04006814579589756, -8.423979159712428e-05, -0.00026981794148350405, 37235000000, 
-0.06409197927349605, -0.01892659810780347, -6.916142411601043e-05, 37245000000, 
-0.02271981252908186, -0.00968107066831101, -0.0001477773133452929, 37250000000, 
-0.015147943080345965, -0.007868711347234833, 0.00017440783654268399, 37255000000, 
-0.1506821559513615, 0.00859591804963261, 0.00020005384183326535, 37260000000, 
0.27556416619998336, -0.0008120492680708062, -0.00022021607123473618, 37265000000, 
0.11659345736380737, 0.031174394275435773, 0.0004281491795632582, 37270000000, 
-0.13110955215543077, 0.0013205797439698468, 1.4767090066383059e-05, 37275000000, 
-0.0007370656462536563, -0.04669225786341003, 6.698828667905506e-05, 37280000000, 
-0.1525931736728736, 0.016394772463579826, 0.00015645926348429793, 37285000000, 
-0.06577818934732445, 0.02515888423619793, -4.063778672038903e-05, 37290000000, 
0.038297966032664735, -0.003272543325332826, -9.771580688041429e-05, 37295000000, 
-0.11170200070124789, -0.006099489578373925, 3.869340036057571e-05, 37300000000, 
-0.057559151929702776, 0.029670642700256857, -3.408887651490006e-05, 37306000000, 
0.016821668359322348, -0.005944726841480158, -0.0006379822747813895, 37311000000, 
-0.11008934484055885, 0.0006866474184150176, -0.00017811836346701902, 37316000000, 
-0.0071788281280076496, 0.021085923282071307, -4.6276518104992105e-05, 37321000000, 
-0.09165739641916279, -0.026905254250961613, -0.00031356987411838985, 37326000000, 
-0.03630503499215475, -0.024607608962729847, 5.231646299053869e-05, 37331000000, 
0.4118249150711566, -0.0007751084418181364, -5.986148416391647e-05, 37336000000, 
-0.1514066781980292, -0.008064798879964492, 0.00017962192383530308, 37341000000, 
-0.05182896515383881, -0.008270663852358993, -0.00019721496904736888, 37346000000, 
0.023091358155143835, -0.013368824062686028, -0.0003036025189964615, 37351000000, 
-0.12912601677092808, 0.014024697560876424, -0.00012711504880288038, 37356000000, 
-0.03992462045312752, -7.12565879981053e-05, 0.00014495199172672382, 37361000000, 
-0.020855570744670576, -0.016050174470531225, -0.0001140237965939624, 37366000000, 
-0.03908302674323519, 0.012009954080045671, 0.00010662545977812763, 37371000000, 
-0.009699693343395514, -0.017242501664318018, 3.507779629443066e-05, 37376000000, 
-0.11253054425345564, 0.018771004922054645, 0.0001814912695327729, 37381000000, 
-0.049079148461530685, 0.008448998020651983, -0.00022241943611607165, 37386000000, 
-0.009741203677004281, -0.005181487197642909, -0.00023016400168434167, 37391000000, 
-0.11003038121370481, 0.029937616196938632, -4.1002910701459135e-05, 37396000000, 
0.2691011282599034, -0.016110481416804653, -0.0002868292827958922, 37401000000, 
0.11199373716170018, -0.02100429932215491, 0.00020872601349569255, 37406000000, 
-0.12757850567475884, -0.006725571130085251, 7.68677047577514e-05, 37411000000, 
0.0025858973346001048, -0.013121449997507513, 0.00022893925510469954, 37416000000, 
-0.12239346753465692, -0.014080970291629911, -0.0003159752194303781, 37421000000, 
-0.030445317525755758, 0.00010810938276981823, -0.0001700055039443845, 37426000000, 
-0.007291101709387477, 0.01054062855843223, 0.0001736789042630404, 37431000000, 
-0.1683718288258127, 0.014010893783406569, 5.479792995557147e-06, 37436000000, 
-0.0520217710187939, -0.00744561166152834, 0.0002615091465657736, 37441000000, 
-0.05030238628260911, -0.011401437395265342, -0.00032352559117179323, 37446000000, 
-0.058819871629449405, 0.015209004459232275, 0.00015006278569949292, 37451000000, 
-0.0451469627793205, -0.006167519791457756, -8.792381607550122e-05, 37456000000, 
-0.07155054328140285, -0.020654819961922102, -0.00019263068017301354, 37461000000, 
-0.053854087864405945, 0.007653391460935799, 0.00017017111468526434, 37466000000, 
0.411057765275016, -0.01608462868487425, -1.836350768634623e-05, 37471000000, 
-0.17658619578373896, 0.0027226723459629074, -7.631288283395755e-05, 37476000000, 
-0.012758130072411842, -0.012838256461908122, 1.0875446872515236e-05, 37481000000, 
-0.1255267921106745, -0.03693418107389713, 1.3176810616190895e-05, 37486000000, 
-0.041268713744952945, 0.01585257475081521, -3.06875977870544e-05, 37491000000, 
-0.013978450863652195, -0.01199441906782318, 0.0002857577471711792, 37496000000, 
-0.14239740642460413, -0.03215949498657049, 0.00013450427737493194, 37501000000, 
-0.02282700717945577, -0.008730659169274325, 2.097866155812774e-05, 37506000000, 
-0.0702130825493771, 0.0284247310003771, -0.0002946499387144022, 37511000000, 
-0.06428785503196348, -0.012937950464138325, -5.445218163464121e-05, 37516000000, 
0.011513135474628141, -0.013168060550686327, 0.00035391015662263183, 37521000000, 
-0.12624771782284064, -0.005302456640610758, -0.00042464997057829317, 37526000000, 
-0.07293148905668709, -0.0281132075217707, -3.771041454186134e-05, 37531000000, 
-0.01768153038405903, -0.006992315464025199, -0.00026654688783831637, 37536000000, 
