acc_x, acc_y, angular_z, stamp, 
-0.0491909008744017, 0.010397480626681369, -5.9065758918395566e-05, 69240000000, 
-0.03722153511000232, -0.02174329919241629, 5.482860911108814e-05, 69245000000, 
-0.04348159535492379, -0.006542804240116615, 0.00011489763264323593, 69251000000, 
-0.08476999482096739, -0.041374567068603714, -0.00020908130656381477, 69256000000, 
-0.06330646058150069, 0.021000477045057978, 0.00046666235646130157, 69261000000, 
-0.06868761284729147, -0.009830183898461803, 0.00018456529815885246, 69266000000, 
-0.06828576337743722, 0.010260072484780718, 0.00014084418784787893, 69271000000, 
-0.03932020500856369, 0.015236917424413469, -5.372952470104012e-05, 69276000000, 
-0.08869982490531356, -0.009127701157528131, -5.855365145131243e-05, 69281000000, 
-0.05203101034548837, -0.006667734251520453, -0.00010202483973757335, 69286000000, 
-0.057098168393877914, 0.010913157456828863, 8.66311801768849e-05, 69291000000, 
-0.0422384499158193, 0.042068159525538815, -2.1240761926504792e-05, 69296000000, 
-0.03784751949612769, 0.046555780067660646, 0.00013026224564649384, 69301000000, 
-0.038637398101694836, -0.031091010833238668, -0.0003258483225985404, 69306000000, 
-0.059878432882710136, 0.0009478115266135173, -0.0002321535023935693, 69311000000, 
-0.045369038494568976, 0.02282002619377846, -0.00018490950553440408, 69316000000, 
-0.06356126381398264, -0.0001329897022605234, 0.00028657788726958765, 69321000000, 
-0.032591937065029816, 0.012847483804280666, -0.0004675517017011679, 69326000000, 
-0.0493460509742667, -0.01957288426378205, -2.9251861127521956e-05, 69331000000, 
-0.0691337334124495, 0.012595255397341873, 0.00010628270514760716, 69336000000, 
-0.0585168637808309, -0.008346725465405132, 0.0001790563310779448, 69341000000, 
-0.032515466310228475, -0.013067729563658636, -7.443170967695161e-06, 69346000000, 
-0.07875058432964394, -0.0015253209105661693, -0.00011490589150146886, 69351000000, 
-0.03927211033079589, 0.006266441584699172, -0.0003288052486502065, 69358000000, 
-0.03851137611201587, -0.011336799429557853, 0.0001987172324532698, 69362000000, 
-0.04473423431433508, 0.034866812523774486, -0.0005999655223838285, 69367000000, 
-0.07928890091750361, 0.02817093971495703, 0.0003537187910798369, 69372000000, 
-0.06697278938304244, 0.02087683347019678, 0.00016516117624969424, 69377000000, 
-0.055120911005492025, 0.016309179354944206, -0.0001589942647542389, 69382000000, 
-0.06264562129069667, 0.0021245409948701726, 8.5304454675006e-05, 69387000000, 
-0.0346617300003324, -0.010087410878303836, 0.00015218808030680698, 69392000000, 
4.271925959907154, -0.011105715516876396, 0.0003793788743089828, 69397000000, 
-0.15630685942131986, -0.010972227717431914, 8.023723895769731e-06, 69402000000, 
-0.08597593329222022, -0.007022072637857691, 0.00012197007439193364, 69412000000, 
-0.040368525201327506, 0.020494863170920082, 0.0003659221948316495, 69417000000, 
0.0691528766736335, 0.02270837304185772, 0.0003792814649857322, 69422000000, 
-0.18073282514597705, -0.03878666601131414, -2.5781381720845257e-05, 69427000000, 
16.982731027100016, -0.153971553920685, 0.00020189856822983279, 69432000000, 
0.011094679045702317, -0.005387761074620613, 0.0004574902595675112, 69437000000, 
-0.001110969420676621, 0.099248794569703, 0.0005059145817743242, 69442000000, 
-0.22625263084265698, -0.1268509485097862, 0.0006715066196040793, 69447000000, 
-0.0384981217255935, 0.043976108787281865, 0.0006290981112001327, 69452000000, 
-0.042204506866495586, 0.00498117323482263, 0.00038893565879186283, 69457000000, 
-0.033050881723528935, -0.0076018062002801215, 0.000662204075559846, 69462000000, 
3.0667561944663, -0.03737234609629257, 0.014675167895646308, 69467000000, 
-0.11370073455632168, 0.01563461635241458, 0.0364338346340658, 69472000000, 
-0.0771625533220992, -0.014444603774138504, 0.0644109072517665, 69477000000, 
-0.07522479258940605, 0.026448983115003617, 0.09525040337103823, 69482000000, 
-0.04769515208199512, 0.056272975694730915, 0.12123047673610508, 69487000000, 
-0.05998263708439596, 0.05707514850450377, 0.15945511214665056, 69492000000, 
-0.04506896044313232, 0.03748812303487657, 0.18283788676237892, 69497000000, 
2.511870845109639, 0.0005117846726407048, 0.22194106070017017, 69502000000, 
-0.10118310146666874, 0.07244345304974711, 0.26245097802014794, 69507000000, 
-0.06145722150755456, 0.027416900475523025, 0.31059842458410597, 69512000000, 
-0.06110534765125451, 0.09042768155140302, 0.34703601004663265, 69517000000, 
-0.07010913398346753, 0.055318805790531986, 0.37777679054728175, 69522000000, 
-0.028274339398718186, 0.02693214651723225, 0.4010821852030499, 69527000000, 
-0.045392394039426257, 0.027983933643151552, 0.4163337256077851, 69532000000, 
-0.05950542409414061, 0.045981596276065385, 0.4227623105280641, 69537000000, 
-0.055159839802182635, 0.0295948716151047, 0.42050360612399157, 69542000000, 
-0.03554168846513394, 0.026905135626040938, 0.4110166601473918, 69547000000, 
-0.07452699115748272, 0.03597905732673738, 0.39494586902773365, 69552000000, 
-0.045607859591835394, -0.007931896429528677, 0.3698441542741377, 69558000000, 
-0.059184298578299, -0.01357836305222021, 0.3459771066094921, 69563000000, 
-0.03966438775002522, 0.024950498081407993, 0.33063207529434013, 69568000000, 
-0.049190617186173465, 0.018959978657978247, 0.2832364059602063, 69576000000, 
-0.04479845998750007, 0.003583070674056785, 0.2631934056183796, 69581000000, 
-0.04820315381056291, -0.009282994978221954, 0.24718623302987164, 69586000000, 
-0.05034920243598978, 0.027882155510355208, 0.23588319431710533, 69591000000, 
-0.08190047718786392, 0.0389579168081043, 0.229913973508826, 69596000000, 
0.11818996324530322, 0.04738400484984778, 0.22848037223731843, 69602000000, 
-0.04294225826354045, 0.010048033473973813, 0.23328324594689068, 69607000000, 
-0.03279167784764188, 0.018777575464611403, 0.2413562483679174, 69612000000, 
-0.0393062734850624, 0.04941782494329926, 0.25266858308107226, 69617000000, 
-0.014724676913424266, 0.02183957056408343, 0.2663586083792957, 69622000000, 
-0.02681309215474767, 0.03614615867176613, 0.2806811266071474, 69627000000, 
-0.06940944390736266, 0.04535301246693542, 0.2950878132534065, 69632000000, 
-0.0362785654807717, 0.01967191839877182, 0.3055989158478786, 69637000000, 
-0.032650031209049676, 0.02789529423134745, 0.32037237593404216, 69642000000, 
-0.04249264847625754, -0.01532989307295194, 0.32971303564715243, 69647000000, 
-0.04934821605931262, 0.01564257088300855, 0.3368623687158662, 69652000000, 
-0.03019239220817533, 0.023529447396460137, 0.34049535054974817, 69657000000, 
-0.03656072579021685, 0.06919605187566462, 0.34151462514451125, 69662000000, 
0.09833540075687808, 0.031486068067919995, 0.3398789008567192, 69667000000, 
-0.025368560058397445, 0.053329628857705605, 0.3351120026694963, 69672000000, 
-0.030830457414495166, 0.014818953089835976, 0.32803484579184633, 69677000000, 
-0.048564506948430716, 0.017417040711895565, 0.3218519812475331, 69682000000, 
-0.0257983145914285, 0.021819421065486663, 0.31362497784501303, 69687000000, 
-0.04672005586623168, 0.024388529267203998, 0.30676728959252014, 69692000000, 
-0.016672007762141183, 0.030753450015971826, 0.29707635459841225, 69697000000, 
-0.06907113512065648, 0.017357266732205463, 0.2898979507681578, 69702000000, 
-0.03179215061824081, 0.020370188934891998, 0.2842831742079968, 69707000000, 
-0.04156367123943529, 0.05112379290651907, 0.279382137339632, 69712000000, 
-0.03938154142407717, 0.03111637418464342, 0.27703103586534716, 69717000000, 
-0.0818328204510261, 0.02565287409780675, 0.2757870481100857, 69722000000, 
-0.05784792562329779, 0.05042019539846516, 0.2762449932863595, 69727000000, 
-0.053510033526582804, 0.006135353376425217, 0.2782495829618946, 69732000000, 
0.15624490956056025, 0.06064460931237703, 0.28179231303162866, 69737000000, 
-0.016430339312436662, 0.019043723108520053, 0.28605263596264935, 69742000000, 
-0.0715602131311365, 0.04540798289426522, 0.2894286007983411, 69747000000, 
-0.04007259855511281, 0.025582453425456207, 0.29546375072694275, 69752000000, 
-0.056930643610929706, 0.045141457899756814, 0.30015005414733864, 69757000000, 
-0.05245138756207364, 0.02684210619855744, 0.3045164739901428, 69762000000, 
-0.04391753976695457, 0.0511286084770032, 0.3083010806458447, 69767000000, 
-0.05414638067422467, 0.06173546213625064, 0.3100163619108496, 69772000000, 
-0.04757139854046247, 0.01378823919723618, 0.3130754486945265, 69777000000, 
-0.06282079259180201, 0.06176036224433101, 0.31412551225424046, 69782000000, 
-0.050063603714779255, 0.04569721140595383, 0.3140542517519173, 69787000000, 
-0.008614478010475761, 0.0433858551153823, 0.31316799033895354, 69792000000, 
-0.0314959641823512, 0.04575751681411307, 0.31151968946520014, 69797000000, 
-0.048767381376329334, 0.039377451526559144, 0.30847356620204425, 69802000000, 
-0.041218418573842994, 0.026092861677294122, 0.3061308547635563, 69807000000, 
-0.018132715189130007, 0.02670615716946991, 0.30315947279299804, 69812000000, 
-0.059211317674363516, 0.03605636201202803, 0.3003127794537562, 69817000000, 
-0.05668470911024495, 0.04316435067900534, 0.29794566548316387, 69822000000, 
-0.04987935028926209, 0.03670008336549839, 0.2955235669925186, 69827000000, 
-0.042574347592935144, 0.03822499693512606, 0.29497870277854676, 69832000000, 
0.06572101602431338, 0.01810632433973417, 0.29259552314998377, 69837000000, 
-0.011823786074938072, 0.040092020027707745, 0.2918363634511808, 69842000000, 
-0.07862467410296003, 0.02441270600968186, 0.29174104250304345, 69847000000, 
-0.045841393698785184, 0.004491771768893545, 0.2920581666008671, 69852000000, 
-0.062223624555326595, 0.014682729597918984, 0.2928248497785256, 69857000000, 
-0.043211432981718395, 0.042267302844394804, 0.2942324291352717, 69862000000, 
-0.026679880420125087, 0.01897929685841289, 0.2958492837374926, 69867000000, 
-0.08355458878678769, 0.04280847550817232, 0.2979095648731771, 69873000000, 
-0.030985129850235774, 0.020493149861757386, 0.29942431681299914, 69878000000, 
-0.027586545686046522, 0.015360436960428787, 0.3010075165406706, 69883000000, 
-0.051136904335527214, 0.029443686843634874, 0.3022315705398727, 69888000000, 
-0.05790070203288387, 0.012098219593498136, 0.30325530069009765, 69893000000, 
-0.09480489957748213, 0.04632634483485018, 0.30362005160583383, 69898000000, 
-0.08677817092769288, -0.005742420065002259, 0.304267443978143, 69903000000, 
0.17264323915302282, 0.026197859020825134, 0.3046625288512048, 69908000000, 
-0.054359510584103876, 0.04498541875053227, 0.3042919758428989, 69913000000, 
-0.04517300117818996, 0.02942253473551176, 0.3040166884571391, 69918000000, 
0.05750170417132877, 0.06584163082412875, 0.3029082944449185, 69923000000, 
-0.1251967183556419, -0.02249691215307244, 0.3024181914336423, 69928000000, 
-0.054850339289828805, 0.0050639995103793425, 0.3015958751445899, 69933000000, 
0.044313663750201085, 0.03146592107588863, 0.30067450949482444, 69938000000, 
-0.17947133336761406, 0.01853037792441547, 0.299190503465889, 69943000000, 
0.02005633047594908, 0.06447112891070944, 0.2989920517746888, 69948000000, 
-0.11673344455664884, 0.05100890195788822, 0.2980218154308668, 69953000000, 
-0.052616865119919726, 0.07491508072820934, 0.2975116274025033, 69958000000, 
0.05497961037952917, 0.04904833361915102, 0.29713710240702634, 69963000000, 
-0.17828329307785765, 0.01477302901004399, 0.29733563477977615, 69968000000, 
-0.05431785839364404, 0.04131949532918572, 0.2972709579038705, 69973000000, 
0.08451780315505163, 0.06394083857181382, 0.2970589557713348, 69978000000, 
-0.17386266527315358, 0.015737994338847337, 0.2978494182616379, 69983000000, 
0.08404305280629241, 0.05068378043989119, 0.29800980331117566, 69988000000, 
-0.06930608419084107, 0.048281722571713, 0.29829690427113836, 69993000000, 
-0.1663258481522032, 0.013598261187619325, 0.299069920506646, 69998000000, 
0.04396341977731554, 0.08115278553761132, 0.2998836466953818, 70003000000, 
0.12338074902170584, 0.037248127334333005, 0.30068941807407146, 70008000000, 
-0.21176608320655346, 0.008065754827145123, 0.3009384602324114, 70013000000, 
0.044146046434599795, 0.030808450191725085, 0.30117063290244833, 70019000000, 
-0.09228380154655469, 0.02226269106355775, 0.3012878664921321, 70023000000, 
-0.1447722413066662, 0.004801430636795367, 0.30165013006518504, 70028000000, 
0.06919946408701458, 0.045785357179992575, 0.30131902111762315, 70033000000, 
-0.06523340454941491, 0.0316242912636601, 0.30161912380583555, 70039000000, 
-0.16759847273837658, 0.011703098163564303, 0.30099856526401786, 70044000000, 
0.027787136590505655, 0.046602493607960864, 0.3006127818161669, 70051000000, 
-0.19079459944460544, -0.018943460938191693, 0.30039248419004166, 70056000000, 
0.06534008330894484, 0.06040484166112338, 0.3003471161177699, 70061000000, 
-0.07257946574098727, 0.03265996811422823, 0.2996811235582329, 70066000000, 
-0.21069161263305317, -0.021342081804077317, 0.29945987243709704, 70071000000, 
0.23238242526578198, 0.07362498352790733, 0.2991324670510481, 70076000000, 
-0.08113695151926797, 0.041529192423977374, 0.2990812737532689, 70081000000, 
-0.1844976059808049, -0.006215394694463491, 0.2990053371684277, 70086000000, 
0.11035657806224596, 0.10658938723285007, 0.29893730853345835, 70092000000, 
-0.05020842268271168, 0.04530678903872589, 0.2988348086163621, 70097000000, 
-0.19598303100409414, 0.012299619021124341, 0.2989986897841457, 70102000000, 
0.07480893342319701, 0.08728618416415995, 0.29897171163762254, 70107000000, 
-0.06171118089952671, 0.032107911410785187, 0.29925253778323735, 70112000000, 
-0.1340186982467178, 0.02652219575516325, 0.2996360630519458, 70117000000, 
0.0031738395149043114, 0.027283372930721177, 0.2997692006455843, 70122000000, 
-0.06303222010711658, 0.027493288547474282, 0.2998075120423789, 70127000000, 
-0.08444130942172931, 0.0399464164723952, 0.30000776015329805, 70133000000, 
-0.011487583498174404, 0.040179738605315526, 0.30043119534595336, 70139000000, 
-0.20783686528614104, 0.016430674544941307, 0.3002741829988179, 70144000000, 
0.10792755687904175, 0.0452299073218561, 0.3007583079240391, 70149000000, 
-0.18317437942483333, -0.013152301863919332, 0.30029265170275504, 70154000000, 
0.04868234227975617, 0.056337379818223204, 0.3003261247762943, 70159000000, 
-0.04768892813812365, 0.02716365487047875, 0.3005395162510673, 70165000000, 
-0.01624146272969327, 0.0143205627531371, 0.3002800635386851, 70174000000, 
-0.02874797035599901, -0.004500378023536681, 0.3001185180262502, 70181000000, 
-0.05279499476516536, 0.00980253673968888, 0.2998139159736984, 70186000000, 
-0.059031150264923275, 0.04136368475928887, 0.2995031952720455, 70191000000, 
-0.053447032874489944, 0.04736874611120322, 0.299608949166388, 70196000000, 
0.09355758217936215, 0.06848462131277303, 0.29965783628286335, 70201000000, 
-0.21538715983722115, -0.01887832648688067, 0.2997346257582584, 70206000000, 
-0.05287051826536626, 0.03461385459646406, 0.29988585244266186, 70211000000, 
-0.056558778089699474, 0.04394114868516622, 0.2990916259751786, 70220000000, 
-0.06872782863268959, 0.04789429875061712, 0.2993426571864268, 70225000000, 
0.1955599180390982, 0.09661302817040969, 0.299720554112111, 70230000000, 
-0.15773634489342894, -0.009725992005031709, 0.29969277715120424, 70235000000, 
-0.062596788403659, 0.014134247075378994, 0.2995914737545194, 70240000000, 
0.2599702150328579, 0.06943044603706443, 0.29998092828761963, 70245000000, 
-0.1920721453763628, 0.022992635434087146, 0.2998349714427042, 70250000000, 
-0.04787887924944871, 0.056428826574603616, 0.299800512973861, 70255000000, 
-0.020792553880758485, 0.043142729572307484, 0.2995271640339053, 70260000000, 
-0.05796068589764879, 0.032138857359943734, 0.3001695186229657, 70265000000, 
-0.06596914564530164, 0.044541097974355105, 0.30015300923158234, 70270000000, 
-0.04044460908254959, 0.04045124011109545, 0.3002261662965507, 70275000000, 
-0.04456304558954044, 0.049208982167214727, 0.3006580062759339, 70280000000, 
-0.05466053244263974, 0.06818743082960738, 0.2995806991398579, 70285000000, 
-0.03615143251217984, 0.05207321161585372, 0.2997742890797558, 70293000000, 
-0.06991296320421186, 0.061931737693502395, 0.300332132338198, 70298000000, 
-0.05953916441062012, 0.03424253667092207, 0.2999363914561146, 70303000000, 
-0.04487667903848808, 0.06850180277267501, 0.29995917274354583, 70308000000, 
0.13060617824907447, 0.015475764541271232, 0.2995984866435545, 70314000000, 
-0.03685275382536751, 0.028755369846528524, 0.30013971706337483, 70319000000, 
-0.0823520526160337, 0.043639906034230756, 0.29971478249237393, 70324000000, 
-0.042067832103472695, 0.051490249225353474, 0.2994370858959506, 70329000000, 
-0.07042448854501986, 0.04185075160336799, 0.299728138726036, 70335000000, 
-0.0633841467443085, 0.05358178457252183, 0.299709649345148, 70340000000, 
-0.07816614196351618, 0.010843297079738558, 0.30011247032158067, 70345000000, 
-0.03435912487773661, 0.03959170934532665, 0.3000496223342078, 70350000000, 
-0.06839947170149709, 0.045615147745931735, 0.29994441781401693, 70355000000, 
-0.06287941877347453, 0.04062516834452086, 0.2998313726307149, 70360000000, 
-0.06521647466003556, 0.04513659546732879, 0.2997941857569794, 70365000000, 
-0.028386757005707253, 0.0576473838690057, 0.2998955373259671, 70370000000, 
-0.02584028245225387, 0.015718306160856656, 0.2999404950553831, 70375000000, 
-0.022795592918775805, 0.054732455561503385, 0.2998356065254128, 70380000000, 
-0.06469551462391561, 0.04556463547255924, 0.30019076758474067, 70385000000, 
-0.03887690546004975, 0.020404650679491942, 0.30032122256698623, 70392000000, 
-0.028882928228173274, 0.04383684083524115, 0.3001996940841135, 70397000000, 
-0.04615140980982333, 0.0023831280701671204, 0.3000742174350964, 70402000000, 
-0.05336235275614332, 0.04765752372875795, 0.30012642679720775, 70407000000, 
-0.0471257721843002, 0.008836561767613327, 0.30008547500002486, 70412000000, 
0.07626366986964646, 0.05051501512572359, 0.29986657412977863, 70419000000, 
-0.06190183472916137, 0.03786930689444575, 0.299520742783766, 70424000000, 
-0.05961451378096923, 0.028516667309493253, 0.3000386203864814, 70429000000, 
-0.09587497998732779, 0.053469855970058267, 0.29981127833251264, 70434000000, 
-0.0598175497290484, 0.016216011235012522, 0.30006244235859747, 70439000000, 
-0.0378993970634196, 0.06749614515742663, 0.2998211694297433, 70444000000, 
-0.01918061445318297, 0.052392628199638705, 0.29993753653849753, 70449000000, 
-0.038403146219075576, 0.04272200035377191, 0.29981025076019074, 70454000000, 
-0.03427938616804889, 0.023201489012881403, 0.29945612419084766, 70459000000, 
-0.08684480890139928, 0.03515143394187829, 0.2998825118686495, 70464000000, 
-0.02706991974041173, 0.04192054351503311, 0.29998251001066056, 70469000000, 
-0.05227249403863255, 0.0017326338037198796, 0.29981101930977894, 70474000000, 
-0.03774722731765814, 0.025994871366628328, 0.3001177598568388, 70479000000, 
0.12093245876526176, 0.05194508407501573, 0.3000085444464124, 70484000000, 
-0.08140114485591088, 0.0569551717964623, 0.29987573556456953, 70489000000, 
-0.03672425389039627, 0.07176539869774834, 0.3000335749097125, 70494000000, 
-0.05865679798600294, 0.03208317808807016, 0.3001026397492275, 70499000000, 
-0.07828778714945181, 0.017354258448634658, 0.29988563365406046, 70504000000, 
-0.04136413982723831, 0.04189718403486768, 0.29994133645376075, 70509000000, 
-0.06316132842937823, 0.052046319167105524, 0.2997799702574131, 70514000000, 
-0.0733741869835765, 0.05796947431275857, 0.30019132972931445, 70519000000, 
-0.029522531097852377, 0.05791070696249251, 0.29975683227800837, 70524000000, 
-0.0328826466957062, 0.0357439318892523, 0.30008108234357933, 70529000000, 
-0.06048328456925403, 0.061368812827880745, 0.2999411421056991, 70534000000, 
-0.026164384246458106, 0.04517921318890193, 0.2997428436457848, 70540000000, 
-0.05224884385578474, 0.06780912123836058, 0.3002435631737519, 70545000000, 
-0.05008965308001532, 0.024426035040411416, 0.2996591032991052, 70550000000, 
-0.03593716053387495, 0.04263390692569958, 0.3000184901482029, 70555000000, 
-0.013884507130589186, 0.0740131464066723, 0.2999706432926069, 70560000000, 
-0.10967436376576897, -0.014413875001606366, 0.29934656890066075, 70565000000, 
-0.05305782934409963, 0.05468029253541723, 0.2997648023693309, 70570000000, 
0.0017901561701513437, 0.07561576208501303, 0.2998810978546253, 70575000000, 
-0.08516300541408993, -0.013676087388825052, 0.2998692996039759, 70580000000, 
-0.028615563927585134, 0.06012956877684049, 0.29983932736211183, 70585000000, 
0.1832138468678218, 0.08642369247249407, 0.29973817993565016, 70590000000, 
-0.09291008735692738, -0.013445065015306496, 0.2999435732610623, 70595000000, 
-0.06875741454527858, 0.041888047116774345, 0.29983239913804055, 70601000000, 
-0.02664339016883409, 0.06353009218867894, 0.29993406652615573, 70606000000, 
-0.13733591578523419, -0.004952102428118261, 0.2993171714524981, 70611000000, 
-0.029106884426724575, 0.03122128914479564, 0.2999617636734399, 70616000000, 
0.002046593235223032, 0.08655248929812487, 0.29983338820302885, 70621000000, 
-0.1211212884310837, 0.032691909403755395, 0.2995785815634889, 70626000000, 
-0.04376292129098344, 0.08267265431404351, 0.299949782331215, 70633000000, 
-0.12744110927709618, -0.0027904174766979224, 0.29981442821231763, 70638000000, 
0.010776063892358379, 0.08506940474049363, 0.29994910482648385, 70643000000, 
-0.056619691184479785, 0.03212786504309129, 0.29987820627847167, 70648000000, 
-0.08236524858427587, -0.022683868732559977, 0.299682220657382, 70653000000, 
0.128995395791221, 0.08142424437044248, 0.2996992737151466, 70659000000, 
-0.16128269055559083, 0.008097266111136968, 0.2998587349114507, 70664000000, 
0.03351379848867679, 0.10715275695870956, 0.29996177170256677, 70669000000, 
-0.055335556556928484, 0.0015083570141595157, 0.29984510531433217, 70674000000, 
-0.11961833168432139, -0.010485154311567789, 0.3002403280152746, 70680000000, 
-0.002343338951971325, 0.08654830099994883, 0.29992687608960883, 70685000000, 
-0.12882626649160117, 0.018884224536780618, 0.2996801035106122, 70693000000, 
0.01456977529363872, 0.10064031059237322, 0.29961277218008125, 70698000000, 
-0.10758210098582427, 0.005954014672477357, 0.29997858140616834, 70703000000, 
0.007857677315364641, 0.07602302928463825, 0.2998272835972821, 70708000000, 
-0.05406568904950633, 0.05615718632480492, 0.29988425790765305, 70713000000, 
-0.10717305745278094, -0.006234878079485038, 0.2997488877206244, 70718000000, 
-0.01632425424140245, 0.0981917565115137, 0.2998307597833124, 70723000000, 
-0.07527150189021709, 0.044457092967521185, 0.30009429587040176, 70728000000, 
-0.06841575742588388, 0.022889176212125252, 0.300030192968859, 70734000000, 
-0.05752779459863581, 0.01584405193660708, 0.29963406081499633, 70739000000, 
-0.055645427515201455, 0.030106882734425314, 0.29978228359525794, 70744000000, 
-0.06207564192239631, 0.02889327625457378, 0.3000262244489942, 70749000000, 
0.08141120568231829, 0.028626767238584434, 0.29997665581784916, 70755000000, 
-0.09439228958643092, -0.07211814525336419, 0.29979156225034687, 70760000000, 
0.03486408219784901, 0.13775292778168227, 0.29997883596354874, 70765000000, 
-0.06650244250549256, 0.040194813720474544, 0.3000900952809172, 70770000000, 
-0.13805735713066447, -0.02179137844236071, 0.299971104394434, 70775000000, 
-0.002743532287251037, 0.11969549817944362, 0.3000592867122467, 70780000000, 
-0.04781195374396012, 0.02480001311124817, 0.29987359496130267, 70785000000, 
-0.15139572347684085, -0.026399992224919074, 0.3001623361733734, 70790000000, 
0.050851120005293994, 0.09680036283402571, 0.3000154720237905, 70795000000, 
-0.032341987574062786, 0.042827442517322775, 0.30025533516990416, 70800000000, 
-0.11379219291487135, -0.023338808544248885, 0.3000776817356583, 70805000000, 
0.021827987617150928, 0.12363619632983164, 0.3003164250785064, 70810000000, 
-0.05930959552789819, 0.02773850605701511, 0.299514080125167, 70815000000, 
-0.1529723476579604, -0.01573043577577944, 0.29968303173290056, 70820000000, 
0.005086700714157623, 0.13761152550599384, 0.29987341885226615, 70825000000, 
-0.1121631122211115, -0.06135003193551598, 0.30007884428422843, 70830000000, 
-0.0515424983413064, 0.048159225707789806, 0.30006718991367637, 70835000000, 
0.014621695339126597, 0.11452272904743382, 0.30007816900003914, 70840000000, 
-0.16688618158325177, -0.059353728954165345, 0.3003953647093228, 70845000000, 
-0.041021470318642735, 0.11775193925274896, 0.30023767151190506, 70850000000, 
-0.09098561607713627, -0.0221114476091768, 0.2999993664567146, 70855000000, 
0.08636968126367635, 0.07604101531207236, 0.29981784884374785, 70865000000, 
-0.10801597030743829, -0.06331658753627488, 0.3003465258345994, 70870000000, 
-0.054800050591823524, 0.06016364883360983, 0.3001584007960863, 70875000000, 
0.017392771028528015, 0.12109639138451261, 0.3000000264300282, 70881000000, 
-0.08502655670926115, -0.027753089433894797, 0.30004495754364524, 70886000000, 
-0.0635774647360153, 0.053169614424927104, 0.3005065110056687, 70891000000, 
0.011006714694275003, 0.13849922735385975, 0.29962987654687323, 70896000000, 
-0.08814359478491958, -0.031520591084535775, 0.2997848177470747, 70901000000, 
-0.09360492098298298, 0.0617738607559544, 0.30061167677450107, 70906000000, 
0.000721036430922413, 0.10474042417877572, 0.3002485234535257, 70911000000, 
-0.09182091698540372, -0.045607605946738586, 0.2998582720605319, 70916000000, 
-0.06823343147504463, 0.03589300714332297, 0.30023053603005784, 70921000000, 
0.12712517897105002, 0.03626917029366838, 0.3000811971461104, 70926000000, 
-0.06796947813419861, 0.03383560702556914, 0.29997274885409414, 70931000000, 
-0.051735027761818285, 0.058023911103460515, 0.29995984951590215, 70936000000, 
-0.05489431388495903, 0.05779603179821137, 0.3003356849461061, 70941000000, 
-0.048317655734526906, 0.026298864845281746, 0.29982356531390864, 70946000000, 
-0.06101885317935796, 0.06814787972774052, 0.3000861135850679, 70951000000, 
-0.06166395263534015, 0.05629658508316345, 0.30015801538551806, 70956000000, 
-0.050089031936698274, 0.057405472773206616, 0.300333111777479, 70961000000, 
-0.04491381468926221, 0.023978432557159975, 0.29999578251203646, 70967000000, 
-0.04198153480907329, 0.03215437921213983, 0.3005157960279663, 70972000000, 
-0.045963247630202764, 0.061667635164885215, 0.2994148994471853, 70977000000, 
-0.04725824607007513, 0.0529427398352462, 0.29973779352366736, 70982000000, 
-0.04874630567984309, 0.04570307735235611, 0.30005909058606495, 70987000000, 
-0.030653164611489318, 0.08566564851382497, 0.29965637876730844, 70992000000, 
0.11276883627249622, 0.047859239316763946, 0.29997843175779243, 70997000000, 
-0.026414243774941108, 0.05728414435499973, 0.2999892566320856, 71002000000, 
-0.041012047160861355, 0.03998758886054615, 0.2998736808353071, 71007000000, 
-0.07766325081389244, 0.04894337153343059, 0.30031581031125903, 71012000000, 
-0.05629715782730874, 0.05004923107350679, 0.29989313565627856, 71018000000, 
-0.04287772964703408, 0.06477470343377839, 0.3000538871131705, 71023000000, 
-0.040432227146369584, 0.038903786853437795, 0.2998415855256318, 71028000000, 
-0.036852293513736006, 0.021249373323555584, 0.2998663493102925, 71033000000, 
-0.03218932363593782, 0.03322959382876478, 0.29997391203835716, 71038000000, 
-0.07534301836749221, 0.06252043719199031, 0.2996322546969801, 71043000000, 
-0.06608775506205906, 0.05221011275562723, 0.3002217223991239, 71048000000, 
-0.069268867499732, 0.07615997546155334, 0.30006746588967115, 71053000000, 
-0.04008688890348297, 0.032472430957951916, 0.2996201558523365, 71058000000, 
0.14363683626451765, 0.04596441896060022, 0.299986646318071, 71063000000, 
-0.04440211643277299, 0.05970106845612853, 0.29999636472138963, 71069000000, 
-0.04955618523158421, 0.02829984233660648, 0.3000889922405724, 71074000000, 
-0.052699596414435064, 0.051828533318145, 0.2998502225964122, 71079000000, 
-0.03818027107025394, 0.04222627163238845, 0.29975607760874495, 71084000000, 
-0.02014885258872861, 0.02444939580402801, 0.2999504814126039, 71089000000, 
-0.035562112770547966, 0.07282605537021719, 0.2998473561159396, 71094000000, 
-0.06173206203500815, 0.061353382745929566, 0.29959749481983533, 71099000000, 
-0.015493746280682986, 0.06322649667026141, 0.2999382279058012, 71104000000, 
-0.03630475772099463, 0.0652282141718271, 0.2998548950485894, 71109000000, 
-0.07613732288313793, 0.01707349521053833, 0.300010021180584, 71114000000, 
-0.0555980703707564, 0.05786055557034337, 0.3000109328754385, 71119000000, 
-0.04628967766516372, 0.06162114955590592, 0.2999219702476223, 71124000000, 
-0.014091181750985615, 0.1024629814391421, 0.29976160393556367, 71129000000, 
-0.09875960557540057, -0.006532865101889527, 0.29986827637696595, 71134000000, 
-0.053163724330165196, 0.04695280913477766, 0.2995339122404419, 71139000000, 
-0.03225731138180628, 0.061591146528413666, 0.29995627430248945, 71144000000, 
-0.07324023372744715, 0.05032551006952123, 0.2998599928199376, 71149000000, 
-0.06126176007746321, 0.025415073231858664, 0.29969060959040433, 71154000000, 
-0.04583320105564019, 0.10244959473059362, 0.3001415025345943, 71159000000, 
0.07599360414276093, 0.005644482659962707, 0.3000042354704234, 71164000000, 
-0.0617006894636814, 0.04194197691215256, 0.3002295111209526, 71169000000, 
0.0031971431929416136, 0.12806827830154216, 0.30013205323273007, 71175000000, 
-0.09355973071423279, -0.015758938992362217, 0.2998249581445452, 71180000000, 
-0.009338221413920305, 0.10690026336908832, 0.29981317283222025, 71185000000, 
-0.05317765977180894, 0.0019827990194512413, 0.2997699576269362, 71190000000, 
-0.05905641977962414, 0.041060293703608745, 0.3002592154704697, 71195000000, 
-0.05919017059068513, 0.04577855912198333, 0.29977679022631165, 71200000000, 
-0.008680389625678606, 0.14480485176530053, 0.2998665539452934, 71205000000, 
-0.10025491763920626, 0.028466812579682733, 0.2997159867065981, 71210000000, 
-0.014863896367427791, 0.1005484368069188, 0.29964343593976317, 71215000000, 
-0.09479764076745915, 0.0031099217821564853, 0.30026190304363237, 71220000000, 
-0.059542021922906224, 0.0977014579422447, 0.30001040417311864, 71225000000, 
-0.058002997669962954, 0.029040322776618662, 0.29992702492527296, 71230000000, 
0.1441478762280996, 0.04998560579614064, 0.3003217920239788, 71235000000, 
-0.03294504915307214, 0.09431814607279479, 0.29980343370843987, 71240000000, 
-0.14304352218307956, -0.045594610514662515, 0.299912626723077, 71245000000, 
-0.005264474605009674, 0.11338031349876511, 0.29988154802908923, 71250000000, 
-0.13100765407882958, -0.019363258632028077, 0.2996645819517302, 71255000000, 
-0.011723475030709968, 0.10906962080696708, 0.2998090140514854, 71260000000, 
-0.047412582166228616, 0.0846737527071734, 0.3001173558392727, 71266000000, 
-0.08958831087722138, -0.00571158022508749, 0.2998525860718771, 71271000000, 
-0.013356778045332193, 0.1414216307277109, 0.2994912338191719, 71276000000, 
-0.11102938778183398, -0.029887373050079356, 0.29958260390486785, 71281000000, 
-0.05954738657799937, 0.05954936100766298, 0.30002145434450317, 71286000000, 
-0.03989021923122442, 0.11746057171337958, 0.29995266600550957, 71291000000, 
-0.10977315420052522, -0.01356000986353798, 0.299859624779332, 71296000000, 
0.024346844413314934, 0.15946628109227753, 0.3001726588524636, 71302000000, 
-0.08444238907032459, -0.0034663853704427726, 0.30033546090402335, 71307000000, 
-0.03170561765116774, 0.0513882039767336, 0.2997529579764364, 71312000000, 
-0.010791120255174463, 0.11559465395165354, 0.29995497621889955, 71317000000, 
-0.08768303914279876, -0.001132765384395832, 0.29962957652179273, 71322000000, 
0.0035017768827692794, 0.12918696148463132, 0.29986757133367814, 71327000000, 
-0.051666791518968344, 0.0763161263767363, 0.299760395443876, 71332000000, 
0.13013421960056656, -0.044953164007201334, 0.2999605282646532, 71337000000, 
-0.049780644496122156, 0.10527001864894497, 0.30018250181298356, 71342000000, 
-0.1158865187170556, -0.06612016226950154, 0.30014230698959404, 71347000000, 
-0.027649307023119823, 0.12763687575538227, 0.2998992461947522, 71352000000, 
-0.009593471985858519, 0.059117384555602885, 0.2997604902073095, 71357000000, 
-0.10891241257434181, 0.0036860232736415123, 0.30017989946243206, 71362000000, 
0.011717867159798064, 0.1526631439424479, 0.3000948552380003, 71367000000, 
-0.11639322472470447, -0.0168329510320303, 0.30001059895230026, 71372000000, 
-0.019393805136765523, 0.1096846200188345, 0.2999704015539085, 71379000000, 
-0.10601994240022776, -0.003936123945410415, 0.30011487396911374, 71384000000, 
-0.09797392155027826, 0.05285846032814439, 0.30044065960490485, 71389000000, 
-0.0015062261912339933, 0.12591317943155236, 0.30009443131240016, 71394000000, 
-0.1240769992931687, -0.001844595557892681, 0.2997807586057272, 71399000000, 
0.18505626355586527, 0.13314142012668218, 0.3000644263625259, 71404000000, 
-0.02413937649175289, 0.04861605051964463, 0.30013028530339186, 71409000000, 
-0.1032538886734876, 0.014354984485340377, 0.3001145700792822, 71415000000, 
0.013459409499587427, 0.15289988870597143, 0.3001484812611436, 71420000000, 
-0.12495185560551392, -0.05868531496610916, 0.300010620076206, 71425000000, 
-0.05196700368807933, 0.07144770069768527, 0.30030641888702014, 71430000000, 
-0.024650948244649508, 0.13824090173395934, 0.29963818819962135, 71435000000, 
-0.08125796802812882, -0.026800843867978402, 0.3002113933077907, 71440000000, 
0.004895247943401963, 0.16437912025863574, 0.2998786325032029, 71445000000, 
-0.1011746346808079, -0.009919001640326306, 0.30007020528236716, 71450000000, 
-0.05805056801500003, 0.04635602072005049, 0.3001581510547729, 71455000000, 
0.010306438385379847, 0.13821815293679962, 0.29975716175332096, 71460000000, 
-0.09450473704843268, -0.03547631789985704, 0.29993762639714683, 71465000000, 
-0.05346215973148471, 0.07959264648658503, 0.2997225677718498, 71470000000, 
-0.029406195467526368, 0.11193734737643171, 0.29986120478473177, 71475000000, 
-0.12791176954224287, -0.016638589894777296, 0.2998739542886818, 71480000000, 
-0.03412292366921209, 0.08586313083289765, 0.30017759255399984, 71485000000, 
-0.03177836311022553, 0.12468087503429254, 0.30018508979616704, 71490000000, 
-0.12703253734256387, -0.017100994612954702, 0.29967740481220667, 71495000000, 
-0.021551422103639237, 0.0537463217797735, 0.30013483683495934, 71500000000, 
0.1495041000269114, 0.15262765927153918, 0.2999596067481621, 71505000000, 
-0.1068591996822515, -0.016430807261835725, 0.29997171374722537, 71510000000, 
-0.0728567452861166, 0.05372657567735603, 0.29991739007086987, 71515000000, 
-0.0066250750554117215, 0.15358071931540057, 0.3002283776748213, 71520000000, 
-0.08147798975316897, -0.014102365424190818, 0.3000978619792897, 71525000000, 
-0.03978823150160432, 0.09254375391373786, 0.29985660956135957, 71530000000, 
0.002217941153565309, 0.18285075632878092, 0.29992416460886645, 71535000000, 
-0.12082367020157281, -0.013148520118135797, 0.2999335720030389, 71540000000, 
-0.08481107863767547, 0.05887078861460612, 0.3000903713812826, 71545000000, 
-0.07485730613219208, 0.08210306293874188, 0.3001915197122019, 71550000000, 
-0.036636177977615855, 0.07718628517493985, 0.2995328386723261, 71555000000, 
-0.05823549328678935, 0.037787330668981975, 0.2997657326282675, 71560000000, 
-0.05941844629266079, 0.08656144325664804, 0.2998724715048016, 71565000000, 
-0.04335147906823521, 0.04690517864802845, 0.3000095881836178, 71570000000, 
0.1517027736572894, 0.07128316094749179, 0.30018978321436507, 71575000000, 
-0.036402266137075256, 0.0667951889042788, 0.3001945666675948, 71580000000, 
-0.04777064739722541, 0.039029793553576, 0.3000321288591366, 71585000000, 
-0.05126571376504472, 0.07954470032559541, 0.3000121388855628, 71590000000, 
-0.0418895083005289, 0.05333935116124827, 0.2999163564499049, 71595000000, 
-0.06330126489688692, 0.07858482008562581, 0.2999208469259234, 71600000000, 
-0.021766893564994363, 0.03415470191808704, 0.3004501988509035, 71607000000, 
-0.016968778918855267, 0.08295767871903455, 0.3001217110756426, 71612000000, 
-0.04367508460774209, 0.07936004524739736, 0.29978535780095705, 71617000000, 
-0.05752311834122901, 0.054874598739156843, 0.2999066855490694, 71623000000, 
-0.07398977103789191, 0.07558371312783252, 0.3001364926649646, 71628000000, 
-0.05087951857457857, 0.05541364519191623, 0.3002485236271844, 71633000000, 
0.012977617252846099, 0.12051983017663917, 0.299787808260322, 71638000000, 
-0.06181912882270188, -0.008522810498868931, 0.29964835782909305, 71644000000, 
-0.04146932714042429, 0.05688084077268271, 0.30010123919019993, 71649000000, 
-0.03413716208549346, 0.04471842486184084, 0.29977957429963686, 71654000000, 
-0.039252704769531244, 0.07685493028314762, 0.2999341517628766, 71659000000, 
-0.06710245169281559, 0.11147024995499252, 0.3000135097737504, 71664000000, 
-0.04584283533461891, 0.07678158074473822, 0.2999307585811754, 71669000000, 
0.19513726342633014, 0.14375909500586131, 0.30009928841097205, 71674000000, 
-0.05009343425267158, -0.05471589994647272, 0.2998844932774821, 71679000000, 
-0.09102965882164002, 0.03996852389469387, 0.29986088385143994, 71684000000, 
-0.06535670863517785, 0.07291407725390539, 0.2999199090871748, 71689000000, 
-0.06771758918968644, 0.04905981790209982, 0.3000210496944899, 71694000000, 
-0.039394081858481214, 0.07541389551008713, 0.29996395275950866, 71699000000, 
-0.04477183977898561, 0.07674649979685849, 0.2996540572083036, 71704000000, 
-0.060185153764853554, 0.10670539157519902, 0.29995626963956995, 71709000000, 
-0.04658339875951427, 0.09545380461829606, 0.29940114128178014, 71714000000, 
-0.03524006432905975, 0.06247285919464021, 0.3000110087667642, 71719000000, 
-0.06229589500826599, 0.047877851611013246, 0.29999430720941933, 71724000000, 
-0.05730328065763863, 0.05183007475412139, 0.2995542478198125, 71729000000, 
-0.08331000216868137, 0.07104262512342253, 0.30011325805209615, 71734000000, 
-0.025151708145795336, 0.09887162144038031, 0.3002211767978441, 71739000000, 
0.09024528049816134, 0.014342701212467682, 0.3000668836638727, 71744000000, 
-0.0479632218910654, 0.09879313498160955, 0.2999085823573072, 71749000000, 
-0.01620170623541005, 0.05122997537939494, 0.30037995677681406, 71754000000, 
-0.0820833049505413, 0.03967480363362974, 0.29992639874756777, 71760000000, 
-0.006727250329238396, 0.137487017644508, 0.30001679707981205, 71765000000, 
-0.0903560997874578, -0.02601886933689628, 0.299772243679917, 71770000000, 
-0.044308045531569556, 0.06632024738298535, 0.30000664534469995, 71775000000, 
-0.02906495299604022, 0.10384813044001914, 0.3004183240438745, 71780000000, 
-0.11457134903122719, -0.02287037562381962, 0.2998735962862396, 71785000000, 
-0.05212508469205091, 0.10959824653383117, 0.2998126444279629, 71790000000, 
-0.09233392744669738, 0.011059816068081832, 0.29985269948307114, 71795000000, 
-0.051950166072179386, 0.06407212891946719, 0.29995077707751167, 71800000000, 
0.010352311468021656, 0.12068162304904784, 0.29999139730413016, 71805000000, 
-0.09362270306088524, -0.03692246837352063, 0.29990726565068204, 71810000000, 
-0.07449235784880935, 0.06964816297101124, 0.29983671780354365, 71815000000, 
-0.016267279326764097, 0.1172203919203782, 0.29996736709380906, 71820000000, 
-0.07974834448780375, -0.0025829660766253956, 0.29992361792194505, 71825000000, 
-0.019316318397732395, 0.14729156588747566, 0.29996027627815375, 71830000000, 
-0.11378082157933113, -0.025592581031456178, 0.3001454887441738, 71835000000, 
-0.011492760534998522, 0.11037554631469869, 0.30040746823436, 71840000000, 
0.15583190613705686, 0.05543212169068805, 0.29931967118401887, 71845000000, 
-0.10158561505564985, 0.010854943760140453, 0.3000759729448207, 71850000000, 
-6.374840318154953e-05, 0.13790847207117807, 0.30005121933786516, 71855000000, 
-0.13855935648538303, -0.02675396954240234, 0.30008980423908377, 71860000000, 
-0.06577041937961871, 0.06823011395567999, 0.2998371452932005, 71865000000, 
0.028036899056280835, 0.14460728498343367, 0.2999362442478008, 71870000000, 
-0.08274965280656775, 0.027658127593172568, 0.2996955807173576, 71875000000, 
-0.029810201524719387, 0.15535844302320787, 0.3001293158864704, 71880000000, 
-0.0400570475526126, 0.05747337009686357, 0.2998750691696077, 71885000000, 
-0.1082789815383045, -0.040036436334533375, 0.2999744605426139, 71890000000, 
-0.005212486427975229, 0.12514080732219954, 0.2999754819405513, 71895000000, 
-0.11157589529030486, -0.022455434143575186, 0.29989227318950396, 71900000000, 
-0.09459551374404657, 0.05920255821452134, 0.30013746357501414, 71905000000, 
0.002291480162512438, 0.12485170329310713, 0.2998470976881258, 71910000000, 
0.07869924349501758, -0.03360492362259598, 0.3002690392197991, 71915000000, 
0.012151938339311406, 0.16779045445991364, 0.3001947140850966, 71920000000, 
-0.12582585647944908, 0.010409378543479845, 0.2996915488045249, 71925000000, 
-0.08113635964653781, 0.05970637740972697, 0.3002569194608697, 71930000000, 
-0.02104786212301357, 0.12842145799558224, 0.29979073692635827, 71935000000, 
-0.12309697534271397, 0.0009253043576792422, 0.3001868209552689, 71940000000, 
-0.03654543085974324, 0.14650740384213093, 0.29993640184718795, 71947000000, 
-0.08053430328235436, -0.02413188296381351, 0.29986334728183434, 71952000000, 
-0.10314929652824462, 0.06157109452025108, 0.2999138084077734, 71957000000, 
0.013688139746303962, 0.15107804946272896, 0.2999129787379834, 71962000000, 
-0.09627601035036486, -0.013863281866503162, 0.29951544038702294, 71967000000, 
-0.06197992067600721, 0.07379421329876715, 0.30011449303071386, 71972000000, 
0.005685222642639707, 0.16450789101731444, 0.29998404254163435, 71977000000, 
-0.0629904151167436, -0.02501341299650271, 0.2996908455934346, 71983000000, 
-0.06084147312870612, 0.06580522098480324, 0.2999648910600673, 71988000000, 
-0.011674567952539985, 0.16191127499340094, 0.2997254280035982, 71993000000, 
-0.08089974707142665, -0.0006790269838811804, 0.2998726634146923, 71998000000, 
-0.06504890029504598, 0.07792444763887807, 0.3001285373533217, 72003000000, 
-0.031036689143748172, 0.11227981048743729, 0.2999163730342492, 72008000000, 
-0.10126024933053218, -0.053836304685661154, 0.30007219970803256, 72013000000, 
0.16094037019801044, 0.09363780743981645, 0.29992506392526647, 72018000000, 
-0.11999327989063006, -0.019278406620646144, 0.299872006412434, 72023000000, 
-0.03305987742508715, 0.053691512178604225, 0.2996205494175597, 72028000000, 
-0.03478289722154369, 0.07596494223789974, 0.2998125929335842, 72033000000, 
-0.05820619229749558, 0.03894536742565137, 0.3000483347667328, 72038000000, 
-0.06345418264764423, 0.049493089602332334, 0.3003675772659518, 72043000000, 
-0.030424165422301586, 0.02355476673224588, 0.2996730936437654, 72050000000, 
-0.05825497593804988, 0.0695172003964313, 0.30010790683414323, 72055000000, 
0.026237359783578267, 0.16793342503504405, 0.3003619201037881, 72060000000, 
-0.10920809965785712, -0.013505588781861295, 0.2999455213742509, 72065000000, 
-0.05317397160751411, 0.05244218925240171, 0.300059092268581, 72070000000, 
-0.023057589241677393, 0.08485439015972682, 0.2999483206489397, 72075000000, 
-0.07894381074362257, 0.04761403352276221, 0.30017414766413597, 72080000000, 
0.1360084954933441, 0.08052953171880523, 0.3002391168897279, 72085000000, 
-0.049365027700782736, 0.07257417230305092, 0.29970266772901666, 72090000000, 
-0.07342619023267401, 0.07122561426974132, 0.2997379781644785, 72095000000, 
-0.04102744994370852, 0.08872805146330891, 0.3000853086128394, 72100000000, 
-0.018359260484756335, 0.13491905601605012, 0.29948854682785897, 72105000000, 
-0.08047573211390073, -0.02250683688456802, 0.30014353492788814, 72110000000, 
-0.04318596293269653, 0.05190309585595478, 0.2999478416279228, 72115000000, 
0.004503074469908023, 0.12857958854955515, 0.30016802795253034, 72120000000, 
-0.11671242601493673, -0.008673295190306535, 0.2999186089456986, 72125000000, 
-0.03562238379644512, 0.09055403272017687, 0.3000169389220766, 72130000000, 
-0.00341655422349919, 0.14728636433038372, 0.2998237480467304, 72135000000, 
-0.10421700442662546, 0.004635558806549152, 0.30012835867210136, 72140000000, 
-0.06091234004409547, 0.08293176661458337, 0.2998171557899773, 72145000000, 
0.20399255648473083, 0.15983039690034645, 0.29984318394955956, 72150000000, 
-0.13328965548526645, -0.0015857826036505332, 0.29990133743813063, 72155000000, 
-0.06055175450038337, 0.08384177681025584, 0.3004751671161034, 72160000000, 
-0.01823866808207444, 0.11223533382682893, 0.29979956287960996, 72165000000, 
-0.08049146859853831, 0.004623170397934618, 0.30016284568629603, 72170000000, 
-0.051205250696790924, 0.06011025442962825, 0.30002528013843627, 72175000000, 
-0.045076505278738216, 0.07784044569091941, 0.3001469893759732, 72180000000, 
-0.03957862260260321, 0.0949695632430396, 0.2999494530595802, 72185000000, 
-0.08301134787957222, 0.07436070334468194, 0.29976502325849874, 72190000000, 
-0.0382736389404864, 0.08789876236740804, 0.30009750330583407, 72195000000, 
-0.02395294340731284, 0.1495270864221059, 0.3000949913506195, 72200000000, 
-0.08340087568311752, -0.010989431424683265, 0.3000669608798102, 72205000000, 
-0.0357876898297453, 0.08468100722598883, 0.3000397613745444, 72210000000, 
-0.03570100620428571, 0.09987898675954565, 0.3000116803718893, 72215000000, 
-0.03851549900806752, -0.004644062287430247, 0.2998588891105982, 72220000000, 
-0.06169973632174808, 0.06518032059547672, 0.2998691965661904, 72225000000, 
-0.05437252216087302, 0.07209267049860733, 0.299744621788486, 72230000000, 
-0.05620929267142173, 0.04962261975017972, 0.29975841793800445, 72235000000, 
-0.0523204092651371, 0.08001739774613277, 0.30010282426234575, 72240000000, 
-0.06424912465259533, 0.06099121196637927, 0.3000470600042402, 72245000000, 
-0.056466760858321696, 0.07736863251426282, 0.29975663577876255, 72250000000, 
0.13854158064708974, 0.09226310278445513, 0.299630411941655, 72255000000, 
-0.0022656966768223787, 0.1337780090707127, 0.3000259936926552, 72260000000, 
-0.08703171235550203, -0.01126177806244332, 0.2997722104323243, 72265000000, 
-0.037657991149724346, 0.06380560629136242, 0.2998368225820781, 72270000000, 
-0.03596269526402611, 0.13428171585445547, 0.29980882309514145, 72275000000, 
-0.10916901585951895, -0.041471602384445104, 0.2999936421945476, 72280000000, 
-0.051341916991720866, 0.07917150178673886, 0.299703794515425, 72285000000, 
-0.012542236898621368, 0.11315078460525695, 0.2999090160128094, 72290000000, 
-0.07292617147165711, -0.02321883303461903, 0.29961668979285355, 72295000000, 
-0.07531297028847767, 0.07051826574515899, 0.3001980355241045, 72300000000, 
-0.06280740688557827, 0.13747147252550798, 0.29998821233326334, 72305000000, 
-0.09162702378638955, -0.009262088920945929, 0.29996085209495543, 72310000000, 
-0.059596835352786925, 0.06417621852194327, 0.2998087245434338, 72315000000, 
0.17595546153710864, 0.1182898418523546, 0.29996579149795344, 72320000000, 
-0.11645954324604788, 0.0042560954062871945, 0.3001833221570007, 72325000000, 
-0.07433783770222047, 0.08627660882077329, 0.29971061604136934, 72330000000, 
0.013934694882114487, 0.1509192528139664, 0.29998208064923804, 72335000000, 
-0.08150847429356958, 0.017765526481065032, 0.30008015576954755, 72340000000, 
-0.010945977535280605, 0.1236004212549686, 0.30038392973287575, 72345000000, 
-0.10290035130650983, 0.0038101103963649138, 0.29967195662407253, 72350000000, 
-0.04637282598135592, 0.08165682119287888, 0.30020908444253486, 72355000000, 
0.006920420874358707, 0.11476349711073495, 0.3002306119046708, 72360000000, 
-0.08798069952422255, -0.020116108386528286, 0.2999420475697528, 72365000000, 
-0.025927969887855798, 0.13176311762544146, 0.30010745066989614, 72370000000, 
-0.08361604598867248, -0.02443563119710555, 0.2996986667058662, 72375000000, 
-0.047049448511950025, 0.08542761883149363, 0.29991755906641454, 72380000000, 
0.012350315681499541, 0.13284863411261252, 0.2998418451920899, 72385000000, 
-0.1007984014908185, -0.004237569314301906, 0.29994699391234025, 72390000000, 
-0.03213544043574322, 0.07570707271554537, 0.3001705876790482, 72395000000, 
-0.054855254555619036, 0.1131473558597917, 0.3001081134133872, 72400000000, 
-0.09644999133844173, 0.0011893102318047532, 0.29986910245036263, 72405000000, 
-0.014351664274730901, 0.16618257158464578, 0.29991009675548996, 72410000000, 
-0.0904452036495931, -0.04469256874725364, 0.2998556017967176, 72415000000, 
-0.06534997689804815, 0.08277625554324099, 0.3000394014369869, 72420000000, 
0.16178680348666089, 0.13964692346779112, 0.2998679903959748, 72425000000, 
-0.13818500875309725, 0.021694740831958374, 0.2997240856403057, 72430000000, 
-0.02471940004687886, 0.12570930770068925, 0.3003404850495167, 72435000000, 
-0.060345803451339136, 0.0650108624844441, 0.30013410534552926, 72440000000, 
-0.12178809520146427, -0.032155446975605184, 0.3000039858251271, 72445000000, 
-0.02736373844916617, 0.12018267136139864, 0.3002720155490246, 72450000000, 
-0.046451953208784466, 0.057879762228736885, 0.2995304201864309, 72455000000, 
-0.11740701383788794, -0.026223685432699706, 0.30009532492791346, 72460000000, 
-0.0017858967795521645, 0.1383637883436479, 0.29988379835928186, 72465000000, 
-0.10263732079683986, -0.04468962747065604, 0.29981638192620613, 72470000000, 
-0.051908926365597505, 0.05367297680641945, 0.29996799660635104, 72475000000, 
-0.007138502307740955, 0.12841955672847385, 0.29955732468068935, 72480000000, 
-0.12140502771513977, 0.03513804477067327, 0.3000734411255761, 72485000000, 
0.19275349306856474, 0.1421357314869326, 0.30013606487152317, 72490000000, 
-0.0855065783219959, 0.03403514754190542, 0.2999810487869501, 72495000000, 
-0.08029922787635735, 0.09964221809836325, 0.3000198362644878, 72501000000, 
0.004672837549782399, 0.14114926846893078, 0.2999372685072327, 72507000000, 
-0.08805589102511063, -0.03987315536572246, 0.3001667121625743, 72512000000, 
-0.01381439040888962, 0.07863464010379415, 0.2998114198627725, 72517000000, 
-0.03520412153455134, 0.11600933437146632, 0.29990814267741, 72522000000, 
-0.11363081480270598, -0.017643406349708842, 0.29988254665148956, 72527000000, 
-0.03359636092695149, 0.0690194389619827, 0.30017732917152523, 72532000000, 
0.0020984082990218138, 0.17384717569264466, 0.29987591069385716, 72537000000, 
-0.14686242532268934, -0.020584606261459637, 0.30019790964749216, 72542000000, 
-0.02429164442948812, 0.1480024182156577, 0.3000262354274405, 72547000000, 
-0.09926325584787339, -0.013922176486070213, 0.29971729755511684, 72552000000, 
-0.06521188533954343, 0.03482556503448785, 0.3002792546866054, 72557000000, 
-0.026101697833631893, 0.1242767302916955, 0.2998078080557903, 72562000000, 
-0.11065834770210228, -0.02406021176673322, 0.299833351710647, 72567000000, 
-0.028901649891874392, 0.13196721936492917, 0.29988869390866685, 72572000000, 
-0.1413342770776452, -0.01922803399937959, 0.3002165606301436, 72577000000, 
-0.04370690606745282, 0.0918475168162442, 0.29974508488505286, 72582000000, 
0.002969473243339545, 0.12890084292976323, 0.3002621595693777, 72587000000, 
0.11510773980614057, -0.007490860137771385, 0.3005680783283826, 72592000000, 
-0.03659984506015201, 0.08876479290148587, 0.29972084421698064, 72597000000, 
0.007164569701104691, 0.11469910270780262, 0.29964206336305355, 72602000000, 
-0.12600078612478469, -0.03218741360775445, 0.30011813534144455, 72607000000, 
-0.055020048145991284, 0.08861638517223519, 0.2999155579968615, 72612000000, 
-0.027984557912884355, 0.05885205478685767, 0.29970395298230035, 72617000000, 
-0.05725743969398962, 0.0638933821209505, 0.29991436420028983, 72622000000, 
-0.05256543535502399, 0.11144464479452554, 0.30012227602967245, 72627000000, 
-0.007011249178626627, 0.1368835227550967, 0.2999811201114358, 72632000000, 
-0.11038228060886084, -0.022318945667268063, 0.29971836345310765, 72637000000, 
-0.06228800111893252, 0.08482573640975377, 0.3000739131837153, 72642000000, 
0.002452124414875311, 0.145012405755513, 0.2999475447560833, 72647000000, 
-0.09202575244870001, -0.01307806840200557, 0.300119578020336, 72652000000, 
-0.04208447072031235, 0.06274236480869225, 0.2997564575424232, 72657000000, 
0.1932732898071299, 0.14796418866436942, 0.2998252864257795, 72662000000, 
-0.10144143177415815, -0.028866661636665014, 0.3002227304405999, 72667000000, 
-0.038007615422344654, 0.06398798217129058, 0.3003775748649254, 72672000000, 
-0.016973149922493953, 0.12258854274047205, 0.29993777615137485, 72677000000, 
-0.10821555425477522, -0.03229110763022372, 0.2999892517489796, 72682000000, 
-0.0513167627092847, 0.06389091676920866, 0.30053988996687053, 72687000000, 
0.005798041194028259, 0.16597867290815851, 0.2996521113366876, 72692000000, 
-0.12023523355254143, -0.02254678070737206, 0.30042858903048186, 72697000000, 
-0.04857580145445377, 0.08402171370979192, 0.299876037647848, 72702000000, 
0.0055563434958225254, 0.13932629845207892, 0.29976188490402067, 72707000000, 
-0.10728588080368773, -0.031629407308135016, 0.29983349380408725, 72712000000, 
-0.03311760431201576, 0.12570099474449528, 0.3000944376169972, 72717000000, 
-0.04532896402430756, 0.12148298190205216, 0.29965098442047394, 72723000000, 
0.12998081611309958, -0.026119959075861066, 0.29997287329857714, 72728000000, 
-0.06159654888641798, 0.07875204819279741, 0.2999352226750713, 72733000000, 
-0.06046098995734908, 0.10254012780056132, 0.3000813340293076, 72738000000, 
-0.023252580695694018, 0.14530096225778497, 0.2997495886286829, 72743000000, 
-0.11251537144900277, 0.013974405257283095, 0.300126330636037, 72748000000, 
-0.042117897197395796, 0.054326324765810424, 0.30001695979433723, 72754000000, 
-0.041230515806727326, 0.10268531316765771, 0.29970549429705484, 72759000000, 
-0.07106192253898051, 0.05182689648266873, 0.300135944719346, 72764000000, 
-0.05133785884309776, 0.06557057325038285, 0.29979125519119926, 72769000000, 
0.007292621187056897, 0.16429370602788007, 0.29977517290263833, 72774000000, 
-0.08784127813311728, -0.003926365174890773, 0.29969392031732595, 72779000000, 
-0.038750058338877236, 0.08919325459776425, 0.2999451713555605, 72784000000, 
-0.03395539013952659, 0.12802998310914115, 0.30002406476921206, 72789000000, 
-0.10758562880182453, 6.62316304381929e-05, 0.299797959719045, 72794000000, 
-0.02698965792709147, 0.0644873489583258, 0.2999767846392553, 72799000000, 
-0.05351158826239933, 0.08198632600800843, 0.2998736175567882, 72804000000, 
-0.043108015489658244, 0.07135859464925848, 0.29999652084048206, 72810000000, 
-0.08937639860736166, 0.08129421582677739, 0.29999297530731894, 72815000000, 
-0.06392371870788054, 0.06417226808024953, 0.30048920726751105, 72820000000, 
-0.02325614245417399, 0.13960468765505657, 0.3001126465773774, 72826000000, 
0.13285367289633032, -0.03459051070136016, 0.29996154421422494, 72831000000, 
-0.04750914097811331, 0.02840675433718414, 0.30039324926535793, 72836000000, 
0.0024670863104963997, 0.13608957586767748, 0.300142787591462, 72841000000, 
-0.1186210291422941, 0.014389194817304708, 0.2999079526102509, 72846000000, 
-0.057545176331112606, 0.07286940660854392, 0.29986683335197395, 72851000000, 
0.0031988932445684865, 0.14981152322708577, 0.29988715997085674, 72856000000, 
-0.09413640792263378, -0.01747067953564955, 0.2998529084600358, 72861000000, 
-0.04538262624883997, 0.07760947120393752, 0.30011170660094966, 72867000000, 
0.006310879296497494, 0.14371033068753564, 0.2996891525316999, 72872000000, 
-0.10165112333909454, -0.02936866785940879, 0.3002596673278243, 72877000000, 
-0.037226446386058015, 0.07871554062854401, 0.3000699645791148, 72882000000, 
-0.007526111343203187, 0.11099075930043313, 0.29973271023756415, 72887000000, 
-0.08866285976365987, 0.021338342087046765, 0.2997305699076169, 72892000000, 
0.09137588572105593, 0.09338225927164531, 0.2999283317513751, 72897000000, 
0.056213118836509715, 0.17945620742360607, 0.30007454659335925, 72902000000, 
-0.09900898556592697, -0.008022058602575094, 0.3000639763971704, 72907000000, 
-0.05065623036255474, 0.07411925734366843, 0.30013721899702933, 72912000000, 
0.0350237668088635, 0.15458762334419215, 0.2999171054158704, 72917000000, 
-0.1171403588340399, -0.00013926795864841433, 0.2998981971505327, 72922000000, 
-0.0703691140696663, 0.06054506590760969, 0.30001908665322846, 72927000000, 
-0.016837221335189292, 0.13932404446499452, 0.29998452392349195, 72932000000, 
-0.07823893868145416, -0.0072069107736226455, 0.30031274585608425, 72937000000, 
-0.05013341500109372, 0.05707578055938432, 0.2998797861612315, 72942000000, 
-0.02229352116487556, 0.14003058997318746, 0.3000061517848835, 72947000000, 
-0.11546192240673726, -0.024731998586912184, 0.3002382085532315, 72952000000, 
-0.01697216439738592, 0.1040211547970052, 0.29972131274773756, 72957000000, 
0.009179257235822445, 0.1418210358433962, 0.30005097788402724, 72962000000, 
0.06289660276484367, -0.002286312396347705, 0.2998737707442858, 72967000000, 
-0.061442641521363896, 0.0878571365012221, 0.3005175644677636, 72972000000, 
0.028153837835453294, 0.1595857687236448, 0.30045975327390895, 72977000000, 
-0.0851548189062369, 0.02967349889931909, 0.3000219612416373, 72984000000, 
0.001465020637896667, 0.14922591597271356, 0.3001138652178077, 72989000000, 
-0.10151999140903623, 0.013324106137535492, 0.29990762133899407, 72994000000, 
-0.07346912707622996, 0.09147261459048836, 0.2999494680149758, 72999000000, 
-0.05758816737726619, 0.05274510890648979, 0.30007524688989573, 73005000000, 
-0.018835446972724518, 0.12094385615664635, 0.2999773818685756, 73010000000, 
0.005703751326739151, 0.16086928006036258, 0.3000331473333152, 73015000000, 
-0.10903742544406106, -0.011218261355004665, 0.2996174695222751, 73020000000, 
-0.05192662635758309, 0.10713226614513359, 0.2999655887591987, 73025000000, 
0.006850880340572953, 0.17131038359980963, 0.29972427098518456, 73030000000, 
-0.06567909553060647, 0.03446874122026172, 0.2998163208012319, 73037000000, 
-0.009859916901670691, 0.13850502342973275, 0.2999263746360696, 73042000000, 
-0.08050118089149648, -0.006246039591051279, 0.2999282795709569, 73049000000, 
0.005964788634034067, 0.14859815355306366, 0.2995831545898833, 73054000000, 
-0.06036978287985474, 0.01071993083278732, 0.2999577049672443, 73059000000, 
-0.055693974935391515, 0.06681183927475505, 0.30018305760377423, 73064000000, 
0.2012654434233628, 0.15445143035263156, 0.29999855885441096, 73069000000, 
-0.14091102572482847, -0.0741733250233625, 0.2999692790107174, 73074000000, 
-0.05353317740557372, 0.04814043045707984, 0.2999818549247258, 73079000000, 
-0.01846690058028333, 0.10579931057725028, 0.2998775248025876, 73084000000, 
-0.13541956785804868, -0.07006452000304991, 0.2995562423997379, 73089000000, 
-0.04429424670255087, 0.12399554033135085, 0.2998992534052369, 73094000000, 
-0.06847683588342734, 0.004714561420723721, 0.2997858444616423, 73099000000, 
-0.06415364189481858, 0.06554733215665014, 0.3002057677946931, 73105000000, 
0.04075890007195209, 0.15582926810413572, 0.29973456631679835, 73110000000, 
-0.10763743351960298, -0.032673029480109694, 0.3001057409837116, 73115000000, 
-0.048647259420322435, 0.07763799482914001, 0.3002877114236247, 73120000000, 
-0.02196401185203893, 0.16268069564349893, 0.2998478215639294, 73125000000, 
-0.10974611999536614, -0.04429588157580071, 0.3001876188513087, 73131000000, 
0.15619815220134114, 0.12634499531723759, 0.3001234744584111, 73136000000, 
-0.08267135927755807, -0.012401936946442323, 0.29999496950174737, 73141000000, 
-0.04869536630009487, 0.04637658778481849, 0.3000291730686973, 73146000000, 
0.02911249229281975, 0.19278205361881404, 0.2998739054440843, 73151000000, 
-0.0807432757280003, -0.02879924052845013, 0.3000104161340514, 73156000000, 
-0.09627410474348069, 0.04860985474948112, 0.2998853931033559, 73163000000, 
-0.055550466906848145, 0.09073126681037438, 0.29957306842723147, 73168000000, 
-0.07034982057685246, 0.09142836193763706, 0.30007013570474983, 73173000000, 
0.00822429261724603, 0.1573393178709348, 0.30013796019688155, 73178000000, 
-0.09220111776518969, 0.010809645911985466, 0.29959140023858305, 73183000000, 
-0.05017316650350211, 0.07766673522131605, 0.3000859883495097, 73188000000, 
0.029363253659275307, 0.17871369378973756, 0.2998618501401404, 73193000000, 
-0.0957748908088676, 0.01832675627091726, 0.29974623504311915, 73198000000, 
0.17033539257453506, 0.18806968252804568, 0.30011592693809397, 73203000000, 
-0.068825031641391, -0.02332864158018628, 0.29971461020258616, 73208000000, 
-0.0568136415480677, 0.10160631745367524, 0.2997810657267505, 73213000000, 
0.0018436729206625785, 0.1346390799829542, 0.3001563927934256, 73219000000, 
-0.10388047353855734, -0.016635397442954742, 0.29998401122626867, 73224000000, 
-0.06794681683786888, 0.07713457459150065, 0.30001137463657795, 73229000000, 
-0.0030987623005312333, 0.12000836681418171, 0.3000402992179426, 73236000000, 
-0.10187181721123487, 0.02140848976337696, 0.2996359961586374, 73241000000, 
-0.06627653737708292, 0.10691657554868184, 0.30007089086770133, 73246000000, 
-0.028421242448114187, 0.10888101523330196, 0.29968818673232817, 73252000000, 
-0.11832158313957825, -0.023507380201527123, 0.30017347692937285, 73257000000, 
-0.056109338848897336, 0.09653836188932557, 0.3000662351583508, 73262000000, 
0.0037698150924790645, 0.15306346873324791, 0.29997661041177026, 73267000000, 
-0.08120998310400449, 0.011034040117783129, 0.30001553399082825, 73272000000, 
-0.0515924401056617, 0.1211436751663655, 0.3001680923236268, 73277000000, 
-0.10241448858275194, 0.0011344508598242764, 0.2997253525193952, 73282000000, 
-0.053869233062980006, 0.080591741671861, 0.3002260780294995, 73287000000, 
0.009943331932868334, 0.14137727003514658, 0.29993855055254026, 73292000000, 
-0.07964207203427973, -0.003188727852390634, 0.30001945279846576, 73297000000, 
-0.060980393989718426, 0.0796870083249279, 0.29999094038454904, 73302000000, 
0.18048181137997396, 0.15923844253559555, 0.29996325015891084, 73307000000, 
-0.11861494425423189, 0.017763100026354887, 0.29972832264825716, 73312000000, 
-0.043211699351433236, 0.058330453940892334, 0.29978340108701756, 73317000000, 
-0.035531306901909566, 0.1354264765138685, 0.29998117706665284, 73322000000, 
-0.10407575291282924, -0.012221186771763946, 0.29972459406476326, 73327000000, 
-0.06558222045189092, 0.08212437249824742, 0.30029188888746755, 73332000000, 
-0.047567222865628034, 0.12023489471831189, 0.2998399360665952, 73337000000, 
-0.06309273036327999, -0.019419590133721142, 0.29981372570930676, 73342000000, 
-0.07861050818388467, 0.09108620738500656, 0.299848479071468, 73347000000, 
-0.06026923311412535, 0.08225165586225265, 0.3002778093180128, 73352000000, 
-0.018139472487596536, 0.07085123487880135, 0.2999808408158905, 73357000000, 
-0.0334365954127729, 0.0642958897597841, 0.3001902579553761, 73362000000, 
-0.04665906316517847, 0.11345895976849821, 0.30005920274537623, 73367000000, 
-0.02092558409635059, 0.07709774918982047, 0.30005984110794065, 73372000000, 
0.16981339933663592, 0.05061112174723273, 0.2999209228428104, 73377000000, 
-0.03606839668921702, 0.04822168935257265, 0.30024243202622397, 73382000000, 
0.013500089854377655, 0.17071412690067644, 0.29990785738302717, 73387000000, 
-0.08636104322123897, -0.01155210870818842, 0.30008463148549974, 73392000000, 
-0.059474319048526125, 0.06332178770989777, 0.2997033458458737, 73397000000, 
-0.011570036997682023, 0.1575303710586204, 0.30024681091569694, 73402000000, 
-0.0896361632607158, 0.023232593941991994, 0.3000044978203432, 73407000000, 
-0.057669212448044176, 0.08118254977006568, 0.2998038735562596, 73412000000, 
-0.06268747596238548, 0.10859984077041838, 0.29984720203911025, 73417000000, 
-0.03377320060906224, 0.050126726913941676, 0.29998901410313317, 73422000000, 
-0.05899508628227917, 0.07248354157228122, 0.29991269154461403, 73427000000, 
-0.027146492966814907, 0.07921594986496397, 0.3000926880528816, 73432000000, 
-0.05920166208104184, 0.054684550176181214, 0.3001842663740915, 73437000000, 
0.12302265607766563, 0.07053088103918412, 0.3000290203235724, 73442000000, 
0.033790457748486644, 0.18640550412995552, 0.30059398016078603, 73447000000, 
-0.05056363706762131, 0.041569505077876254, 0.29982462407480165, 73452000000, 
-0.015558789183813253, 0.1748407911634387, 0.2998450334260249, 73458000000, 
-0.085055481518578, 0.022651387445491427, 0.3000632408830606, 73463000000, 
-0.055339822709527677, 0.05944543512159049, 0.3002452527923764, 73468000000, 
-0.028697390309341982, 0.13129829379369648, 0.30000506397867255, 73473000000, 
-0.11209209365923872, -0.025840239925293513, 0.3000421843826467, 73479000000, 
-0.05286771885606463, 0.07843388283760774, 0.3000629304936287, 73484000000, 
-0.04105148396112825, 0.07927333025398586, 0.2997480993819117, 73489000000, 
-0.11291008962790842, 0.06983990986439771, 0.2999833224137563, 73494000000, 
-0.005986764096339537, 0.17566737505170005, 0.300123630245034, 73499000000, 
-0.11047815085407722, -0.009727515494862402, 0.2997747651842745, 73504000000, 
-0.03475290779635212, 0.07859217600283358, 0.2999871563465311, 73509000000, 
0.011844996007511311, 0.1624541438781299, 0.29990178551748914, 73514000000, 
-0.10366612479025453, -0.009199206267702063, 0.29978244556938866, 73519000000, 
-0.05443984365741043, 0.06730798752209678, 0.3001891503265133, 73524000000, 
-0.041862338604146766, 0.11994603590885357, 0.30014253593516926, 73529000000, 
-0.04704548729468767, 0.07064423669986337, 0.3001755205373597, 73534000000, 
-0.001870177164407398, 0.17464655427818318, 0.29970633359786397, 73539000000, 
-0.03932526770593592, 0.05890745177798017, 0.2995896690498213, 73544000000, 
0.05034640887702953, 0.011025529554573619, 0.30007896532860756, 73549000000, 
-0.006203405613939379, 0.10775681328574885, 0.29981961198510293, 73554000000, 
-0.0841470558415755, -0.014926527834579094, 0.2994750845955991, 73559000000, 
-0.06528891637340752, 0.05545584647652507, 0.30042799811421267, 73564000000, 
-0.01585078094903699, 0.11441593417319897, 0.29994225165992106, 73570000000, 
-0.10234335453790963, -0.04541188386870437, 0.299964667534425, 73575000000, 
-0.07055851012166817, 0.0784514956014731, 0.30005170764655587, 73580000000, 
0.016390168670822117, 0.14047104312992564, 0.3003079052940755, 73585000000, 
-0.09773581236340592, -0.026274242747850167, 0.29974307987807114, 73590000000, 
-0.07128512103291933, 0.08611238173313927, 0.29979424026500523, 73595000000, 
-0.017270702289054148, 0.11254215601062549, 0.30016579303844226, 73602000000, 
-0.08822989151985748, 0.010701035464137847, 0.30022630940028033, 73607000000, 
0.19492012608168247, 0.16695618360406334, 0.29979203709179675, 73612000000, 
-0.0874628639677808, -0.018512766001325846, 0.2999408198755736, 73617000000, 
-0.0631622773748335, 0.08060046518648335, 0.3000978549716716, 73622000000, 
0.007419066517568603, 0.15804700857461354, 0.2993270362553852, 73627000000, 
-0.10834257411871133, -0.018905764095981825, 0.29992661390949377, 73632000000, 
-0.02324221381454715, 0.16729215773795195, 0.2998808176327038, 73637000000, 
-0.09946811139612638, -0.021968734805150037, 0.3002817609158709, 73642000000, 
-0.08846619113371632, 0.06859778249884714, 0.2999467555786932, 73647000000, 
-0.017358420896393296, 0.1518268455130023, 0.29968926115257766, 73652000000, 
-0.08964474333778563, 0.0004226565666905491, 0.29971883451153547, 73659000000, 
-0.08840173029441362, 0.0733285286206559, 0.2999952555922264, 73664000000, 
-0.013105474987701015, 0.1266278308272115, 0.30009232110824063, 73669000000, 
-0.07032722073882061, -0.004466599945943324, 0.2998264094065183, 73674000000, 
-0.04592002353243913, 0.048952411034124746, 0.3000425312239295, 73679000000, 
0.5765082445876196, 0.3034990473084447, 0.3000925789697258, 73684000000, 
-0.08179673311288732, 0.031124092781216025, 0.30002978025605886, 73689000000, 
0.028849436133544577, 0.17001600005497652, 0.30008790961632287, 73694000000, 
-0.1108342699369267, -0.03532603274944823, 0.2995838852553001, 73699000000, 
-0.060631714547825934, 0.08409375204898935, 0.29966884352768214, 73704000000, 
-0.02003798843776919, 0.12871370291576167, 0.29982340855152023, 73709000000, 
-0.08688534688905308, -0.02703447607559039, 0.300283362359125, 73714000000, 
-0.04543062653500157, 0.05608052994653853, 0.29990090124697105, 73719000000, 
-0.0027198525544915413, 0.16172235713614894, 0.29982962025917426, 73724000000, 
-0.10202977338801637, 0.005920619446051142, 0.3000489340009777, 73729000000, 
-0.036434998516039374, 0.06458114143006682, 0.30006342533514185, 73734000000, 
-0.0033793047002421807, 0.14216913099820644, 0.2998651269560428, 73739000000, 
-0.13192254071322398, -0.036494449064454426, 0.30005762704788586, 73744000000, 
-0.07656817287993323, 0.09009653431417251, 0.29975584121765475, 73749000000, 
0.058457270311691595, 0.12330876052841173, 0.2996581181712269, 73754000000, 
-0.11023075095486781, -0.01720090774256815, 0.3001319976490706, 73759000000, 
-0.09427721836450018, 0.10282226735689515, 0.3004301148008501, 73764000000, 
-0.043372458069061655, 0.09451229832234356, 0.2997590527933606, 73769000000, 
-0.06389095896669278, 0.05766833394138373, 0.30008278562113005, 73774000000, 
8.336280435906006e-05, 0.17720058250379, 0.29997171974322867, 73779000000, 
-0.08021024665748495, -0.0050136992352888595, 0.29997561601248024, 73785000000, 
-0.06334147908938742, 0.0819433012514251, 0.2998846129608385, 73790000000, 
-0.037682561768002124, 0.062439404325637674, 0.29956779679403894, 73795000000, 
-0.06197843361661974, 0.05968007499344393, 0.2998399906957613, 73800000000, 
-0.004271730117094315, 0.19690279102805608, 0.3001341995498207, 73805000000, 
-0.13048073681944106, -0.09940099004734736, 0.3000446613166182, 73810000000, 
-0.10621613409103972, 0.03706653696989046, 0.2998734962540344, 73817000000, 
0.05902022005574006, 0.07508099937953748, 0.2997517774196128, 73822000000, 
-0.08462482542801318, 0.07743815006103641, 0.30013971968054626, 73827000000, 
-0.041732880691580015, 0.13319854026900646, 0.2997121470524373, 73832000000, 
-0.09455837612487045, 0.0405156292019488, 0.2996216396877588, 73842000000, 
0.0062367347189910514, 0.15454345756285925, 0.2999962896913903, 73847000000, 
-0.10733848903168647, 0.024578594119351434, 0.2997872875891867, 73852000000, 
-0.05147820274312536, 0.11025740519981994, 0.3002284480083058, 73857000000, 
-0.04414924334341216, 0.16301169085944145, 0.3000928105419625, 73862000000, 
-0.12918496354049963, -0.07537306145654105, 0.299876887448357, 73867000000, 
-0.048969701946993044, 0.0820057457798357, 0.3001580934230447, 73872000000, 
-0.022118598189796345, 0.1362100268895301, 0.29990271152281633, 73877000000, 
-0.11625305444062235, -0.0031346626064794256, 0.30040191778651765, 73882000000, 
0.28183001929689855, 0.07078512782682975, 0.3001414503155823, 73887000000, 
-0.0478915140021169, 0.06105877892358637, 0.30034096756166107, 73892000000, 
-0.05093043703697846, 0.06132753802769597, 0.29955108409434605, 73897000000, 
-0.059970914667324196, 0.060552906196491736, 0.30019972602859035, 73902000000, 
-0.026398828547195198, 0.08328153029795093, 0.29998428836979807, 73907000000, 
-0.08049104326823008, 0.0649434691716575, 0.30013047823754335, 73912000000, 
-0.057970040950901816, 0.11999680893681341, 0.2995487464900731, 73918000000, 
-0.06521175899209317, 0.07487792067278658, 0.29970210322033597, 73924000000, 
-0.05209599920705387, 0.12703451448977593, 0.300096334711018, 73929000000, 
0.02522942453666983, 0.15542871450075668, 0.3000456776450123, 73934000000, 
-0.12441391949294603, -0.0037677324607197273, 0.30002892955460664, 73939000000, 
-0.06018633333910395, 0.0905294726688042, 0.3002116735137419, 73944000000, 
-0.0009565405044675646, 0.14562252257314642, 0.3001459429253375, 73949000000, 
0.1978791855490393, -0.08882830962581507, 0.2999261779411547, 73954000000, 
-0.06715891525014717, 0.07257327985354664, 0.30039000765542334, 73959000000, 
-0.013649759482783727, 0.18241610548654746, 0.299400130461839, 73964000000, 
-0.11998213317407383, -0.04073865760199703, 0.29974610423361353, 73969000000, 
-0.04069859456418976, 0.07122850092061057, 0.29991804965718954, 73974000000, 
-0.06017077290032286, 0.058773648363207774, 0.29986008292607097, 73979000000, 
-0.047092440407374335, 0.06354595478174814, 0.30010643694421796, 73985000000, 
0.001979444454482198, 0.18336048964159374, 0.2999480366199782, 73990000000, 
-0.10773603903199361, 0.0040703223541052125, 0.2994026213795038, 73996000000, 
-0.016715347662128174, 0.10179405631734573, 0.29992741875291257, 74003000000, 
-0.11223049862326627, -0.056616319834856293, 0.300200972278963, 74008000000, 
-0.050530268938538375, 0.06002907820501946, 0.3001464227471815, 74014000000, 
0.1693998677209192, 0.15479211216771968, 0.2998588630930708, 74019000000, 
-0.06451848412968905, -0.02531000350246085, 0.2998735848409127, 74024000000, 
-0.04540868763734277, 0.06122056428105335, 0.29996994858653714, 74029000000, 
0.01637263898611735, 0.13789580488907074, 0.3000508101618394, 74034000000, 
-0.108246802371458, -0.012127671206591181, 0.30009413130058754, 74039000000, 
-0.058483853577483785, 0.08200935487880881, 0.3001131191788492, 74044000000, 
-0.03170473616641525, 0.08592363320909246, 0.29982717293076755, 74049000000, 
-0.0809286875898711, 0.04874319548338586, 0.30026979600339315, 74054000000, 
0.00228579679157754, 0.16676905317670068, 0.29983860189859846, 74059000000, 
-0.11600226251230097, -0.04541137835678409, 0.2998919165114399, 74064000000, 
-0.016910368985759948, 0.09391541373702067, 0.300023314527769, 74069000000, 
0.006074074829626699, 0.17594066854000945, 0.30010455715948064, 74074000000, 
-0.11309282280582883, -0.04047907771731187, 0.30022222036320906, 74079000000, 
-0.03065692489254119, 0.10948582939514845, 0.30034788423435604, 74084000000, 
0.19820027288929334, 0.16004636743568695, 0.2998801931325997, 74089000000, 
-0.08373005688649576, -0.012702199367741415, 0.29986391443675636, 74094000000, 
-0.05584006651809781, 0.06550478684683832, 0.2999187018119273, 74099000000, 
-0.048180673027195385, 0.09814266797154615, 0.29979769268663775, 74104000000, 
-0.027800662684617634, 0.06711900429141796, 0.3003603464339879, 74109000000, 
-0.059478872120853975, 0.052550059116879495, 0.30012518582777137, 74115000000, 
0.02203147495384316, 0.17714305436552774, 0.2998902933084708, 74120000000, 
-0.10867177977528966, -0.02222538788745712, 0.30014937782268447, 74125000000, 
-0.05853467773027792, 0.0939347310004679, 0.29985643371708454, 74130000000, 
0.02023262899327334, 0.15723430632459634, 0.2996062157720921, 74135000000, 
-0.11059299383797694, -0.0021067790041394557, 0.29983878929153074, 74140000000, 
-0.0639933165729324, 0.08250542815939253, 0.3003564005769903, 74145000000, 
-0.025082786527061307, 0.15510523571562884, 0.3000769124391872, 74150000000, 
-0.2582875180655015, -0.3241674912877617, 0.30023383993748004, 74155000000, 
0.0767821401713077, 0.13515617894153123, 0.3001454998390757, 74162000000, 
-0.14228937170500386, -0.033332763343005306, 0.2999557651825679, 74166000000, 
-0.06530334244631929, 0.07651220301281009, 0.3001631173854863, 74171000000, 
0.013430961812396312, 0.10571151879356133, 0.29988475579919793, 74176000000, 
-0.08977099152065159, -0.015781752419755404, 0.2998828460943789, 74181000000, 
-0.03534094014627985, 0.07545803456487622, 0.30053013597084194, 74186000000, 
-0.014142863238984818, 0.18369849074953679, 0.2998929172728038, 74192000000, 
-0.0978291303037438, -0.002990897640813975, 0.299832340529979, 74197000000, 
-0.030056384032602454, 0.14695799610934723, 0.3002545777700112, 74202000000, 
-0.10587356384373695, -0.03520706468411401, 0.2998711403978322, 74207000000, 
-0.03506281810397324, 0.09370798369112726, 0.2999492209582734, 74212000000, 
-0.017543753903754837, 0.1594829351916249, 0.2998628422738688, 74217000000, 
-0.10529725178300467, 0.00837194624030363, 0.299745573704508, 74222000000, 
-0.01648977941150436, 0.07106636857763877, 0.30008693131281716, 74228000000, 
0.008217120201126596, 0.16575092399047553, 0.30022507345163785, 74233000000, 
-0.07589724449243569, 0.039533314841892715, 0.29995983642989205, 74238000000, 
-0.020439727692436946, 0.08656906058772541, 0.30012380762735097, 74243000000, 
-0.01497182464663211, 0.19492011709161808, 0.30001862711751637, 74248000000, 
-0.08800161902258735, -0.025986572957711007, 0.29982492106729336, 74253000000, 
0.12702142641001107, 0.07115610060624897, 0.30003239785961444, 74258000000, 
0.01476208838570699, 0.1511338829775751, 0.2997391720886123, 74263000000, 
-0.11252583799756628, -0.049757020894024416, 0.29991885391835454, 74268000000, 
-0.06470720004552592, 0.07859600565517774, 0.3001229594820465, 74273000000, 
0.00544371208712863, 0.20567139770763831, 0.29965996100131226, 74278000000, 
-0.07032742258396099, -0.01903667506814247, 0.29981725853460284, 74283000000, 
-0.08700302425427643, 0.08562009542023888, 0.30009504321366914, 74288000000, 
-0.03286809429063969, 0.13561187474574876, 0.29998602963800913, 74294000000, 
-0.10171712730398691, -7.907767684809655e-05, 0.3005000365109362, 74299000000, 
-0.03600528800548704, 0.15748596760898667, 0.3003119754185278, 74304000000, 
-0.06400915628654123, -0.014785507431462373, 0.2999631939709918, 74309000000, 
-0.03917843583486924, 0.08931546425181798, 0.29960335803797666, 74315000000, 
-0.013861745755919702, 0.19445943741449806, 0.2999865630886342, 74320000000, 
0.0516077925651568, -0.029288556075445962, 0.30010919642057005, 74325000000, 
0.035984742591377704, 0.16190576339804336, 0.29999962691768667, 74330000000, 
-0.06580500973744285, -0.03793510052094395, 0.2997728507901659, 74335000000, 
-0.04064070289620428, 0.08657571747781252, 0.3002314682013968, 74340000000, 
-0.005002525594110222, 0.1569191233453787, 0.30032681676190803, 74345000000, 
-0.12056466622259612, -0.009911008539538645, 0.29961291691980546, 74350000000, 
-0.06796983734749545, 0.10753901014842185, 0.3000559870050072, 74355000000, 
-0.04806119703685609, 0.07785922027136082, 0.29984363868152425, 74360000000, 
-0.09007881254507163, 0.09304381334920533, 0.2997389846113404, 74365000000, 
0.0013451738843247739, 0.1825553239782571, 0.30013182908981245, 74370000000, 
-0.1129828185477008, -0.04565627509445448, 0.2998282339029711, 74375000000, 
-0.053350065041812104, 0.05005963789641068, 0.3001881640810159, 74380000000, 
0.0021635844177799474, 0.18361400311433, 0.30013931585284104, 74385000000, 
-0.10242689174853906, -0.004330758132200463, 0.2999134825351093, 74390000000, 
-0.041202471955496235, 0.13681544769155415, 0.3000841612175142, 74397000000, 
-0.10647784523176158, -0.08697339684195929, 0.2997362147917963, 74402000000, 
-0.053227047406863334, 0.08106937238849647, 0.30024886092359226, 74407000000, 
-0.007696951529442414, 0.16387180795436554, 0.2998457648340131, 74412000000, 
-0.11947176678625239, -0.025196599728650154, 0.299734130696066, 74418000000, 
-0.03044214514385608, 0.09028861807385123, 0.29971749853433116, 74423000000, 
0.19825797990323538, 0.17519327615969543, 0.29962238640914857, 74428000000, 
-0.09460737946684726, 0.015549591462856225, 0.30012926514358285, 74434000000, 
-0.04571829247811324, 0.15187636069758714, 0.2998487722197313, 74439000000, 
-0.10093255504397501, -0.07353592891620424, 0.300131919335149, 74444000000, 
-0.05266929783684602, 0.0876502847691185, 0.29990603058505877, 74449000000, 
-0.018953407511235268, 0.16004975916600678, 0.2999854717103583, 74454000000, 
-0.10190793765380994, -0.02461524676545015, 0.2998182012179953, 74459000000, 
0.014586168076065144, 0.15017534113915237, 0.2999174107431739, 74466000000, 
-0.09178720602965566, -0.06762971880031715, 0.30002199446643346, 74471000000, 
-0.06069064237923452, 0.09154551838131768, 0.30012576433466226, 74476000000, 
-0.023093881695095263, 0.15884029672527977, 0.30017935858657274, 74481000000, 
-0.11872299159226166, -0.016714796654879197, 0.3003222426420407, 74486000000, 
-0.06533915209083552, 0.097583117848627, 0.30010623691558874, 74491000000, 
0.1481630944515126, 0.0904174958964751, 0.29968579920324473, 74496000000, 
-0.08465208532892327, 0.06922548147313091, 0.3001989858887569, 74501000000, 
0.004944333808446923, 0.08515067457674137, 0.30007091514449274, 74506000000, 
-0.05956297772655797, -0.0013224452651941663, 0.29973618142877073, 74511000000, 
-0.05069636952078677, 0.10073174938386315, 0.3000776408429499, 74516000000, 
-0.02749351483937967, 0.18164387685961553, 0.2999281743440642, 74521000000, 
-0.1401102559379861, -0.03136525554256053, 0.29984160264037385, 74526000000, 
-0.028837997543791495, 0.07604371862903656, 0.300108395562434, 74531000000, 
0.0056592423789394875, 0.14814409963204983, 0.2996114463807882, 74536000000, 
-0.10680506037521728, -0.04103190449950514, 0.2997511281518408, 74541000000, 
-0.03650748116184656, 0.08224667297016965, 0.3001547637817975, 74546000000, 
0.021157700000272107, 0.20240042384720586, 0.2999682740862037, 74551000000, 
-0.12312867227140996, 0.03295184207640693, 0.29994835770465583, 74556000000, 
-0.03978255300876056, 0.18868218755728305, 0.2999888415903964, 74561000000, 
0.06027329385095715, 0.0070503614175072195, 0.30032789072583743, 74566000000, 
-0.06497316049343725, 0.08833402477447704, 0.2999856225030091, 74571000000, 
0.017953839768748883, 0.17914147799828745, 0.30003961896587317, 74576000000, 
-0.1065952328285346, -0.02135301090685041, 0.30012006310369593, 74581000000, 
-0.013602751791797627, 0.13350932517191802, 0.30013579717165373, 74588000000, 
-0.07998483187343303, 0.009026503505038707, 0.30020760052865764, 74593000000, 
-0.041216385982502414, 0.07198233391326732, 0.30010264813758997, 74599000000, 
0.027666724911907137, 0.16249371573158028, 0.29981893127006826, 74604000000, 
-0.0891267873150194, 0.023650773876422556, 0.2996630504655883, 74610000000, 
-0.07331693235523085, 0.057255270951278504, 0.30018152906609236, 74616000000, 
-0.0620687990257163, 0.08034262323510939, 0.30021452397916315, 74623000000, 
-0.03264022238000032, 0.08285637851678951, 0.299833813248102, 74628000000, 
0.18262126130373055, 0.16895617091885423, 0.3000827367082341, 74633000000, 
-0.07714089847253572, -0.01756978511554439, 0.29964394287743806, 74638000000, 
-0.06154005707430323, 0.07906750031095114, 0.299906610385307, 74643000000, 
-0.03519312174357345, 0.06906901024590287, 0.30014531434517433, 74648000000, 
-0.02694928208373728, 0.1604515894404331, 0.30024023901106894, 74653000000, 
-0.11600042873352058, -0.031699112341879915, 0.3001425101706378, 74658000000, 
-0.025686131676809738, 0.07350501395521443, 0.30001940184557746, 74663000000, 
0.017013022368208647, 0.17545693122815706, 0.2998189096755755, 74668000000, 
-0.1223593110716238, -0.003811151546481678, 0.30012346995547184, 74673000000, 
-0.030017416183006455, 0.09753287580497998, 0.30009154684770956, 74678000000, 
-0.02295767522650213, 0.15796241186975785, 0.3002189470185918, 74683000000, 
-0.07692899039901796, -0.03301359607774901, 0.3000461040566588, 74688000000, 
-0.04741774135349684, 0.06268287447170344, 0.29979634388997467, 74693000000, 
0.12107663643644014, 0.17257113376649294, 0.2997617144877189, 74699000000, 
-0.15166546920907253, -0.040883928761406695, 0.3002778275923937, 74704000000, 
-0.05694047857096321, 0.058694157342480166, 0.3001015885963933, 74709000000, 
-0.05768881327929014, 0.09864376058492269, 0.3000685416465112, 74714000000, 
-0.04249484113976986, 0.06664374970012099, 0.2997295637009925, 74719000000, 
-0.03726622805233541, 0.09441126950575006, 0.3000712667352534, 74724000000, 
0.013554572018153948, 0.13032749331870286, 0.30003791680790154, 74729000000, 
-0.08216162480933153, 0.014241727994841939, 0.299643770215064, 74736000000, 
-0.07510096168976985, 0.07051992743982811, 0.3002971181761569, 74742000000, 
-0.005396211885467997, 0.15931227953393295, 0.2998364657483729, 74747000000, 
-0.07699064754680701, -0.010583966331642766, 0.2998947984682298, 74753000000, 
-0.037561696530739555, 0.08810611490876533, 0.3001460344185586, 74760000000, 
-0.025864398916857195, 0.1947509717935589, 0.2999700449529968, 74765000000, 
0.08085082701849133, -0.010902482057378211, 0.2998615787270377, 74770000000, 
-0.08149949787641914, 0.10636119972036354, 0.30028295834514546, 74775000000, 
0.009329519573478896, 0.1515785711898905, 0.29990592332409666, 74780000000, 
-0.13451985577396347, 0.006141135304482748, 0.2999245027061751, 74786000000, 
-0.0584544633234302, 0.06955495683011526, 0.2997729067639369, 74791000000, 
-0.0029547074265809754, 0.17915596503182799, 0.2999229576083066, 74796000000, 
-0.10114445169028904, -0.033535283892293585, 0.2998750351995566, 74802000000, 
-0.04848427058762912, 0.09801590524864034, 0.30029277990263026, 74807000000, 
-0.032246285137673525, 0.1746191185139841, 0.3000546386700172, 74812000000, 
-0.10840317131659691, 0.04969122106459837, 0.3002299377725565, 74822000000, 
0.0064819987899823565, 0.20362925922652303, 0.29982857953147657, 74827000000, 
-0.11645586081088637, -0.03615960578718792, 0.2999246194085048, 74832000000, 
0.13874011954911702, 0.11084118363515061, 0.29999147477604465, 74837000000, 
-0.0021557563958427665, 0.19949897615742015, 0.30005392763542815, 74842000000, 
-0.14098429212557168, -0.0375421647422231, 0.3001491351865324, 74847000000, 
-0.04274861773854349, 0.05819188634018895, 0.300305855830866, 74852000000, 
0.007915363862872019, 0.16962887728325807, 0.30001443708037834, 74857000000, 
-0.0995500161554562, -0.013219054185504038, 0.3000872045464296, 74862000000, 
-0.06678858980391862, 0.10258439074467228, 0.30018650380507256, 74867000000, 
-0.020804433284122268, 0.16699893110892816, 0.30020175961743334, 74872000000, 
-0.08644276179863401, -0.0327125860053671, 0.3000936576858149, 74877000000, 
-0.06419468317471187, 0.08110281120043122, 0.3001126576587022, 74882000000, 
-0.01905742611762499, 0.15207513987712917, 0.30000978701266223, 74887000000, 
-0.1187814198187767, -0.031671635384127636, 0.29966438803933526, 74892000000, 
-0.03457843277673159, 0.07568033266906007, 0.30005955794536154, 74897000000, 
-0.013747209776030191, 0.20297979836203606, 0.2997493910067092, 74902000000, 
0.045421527498183775, -0.03521958852357113, 0.29996550812722084, 74907000000, 
-0.023722890784684272, 0.0468501658530252, 0.3002798010380688, 74912000000, 
-0.05045280893742941, 0.10465043370309707, 0.29965231939599474, 74917000000, 
-0.08198481483172386, 0.0865212369012811, 0.3000931218001302, 74922000000, 
-0.0388961280532215, 0.15249592613250668, 0.30037804438807253, 74927000000, 
-0.10120759517487546, -0.014514200722326315, 0.30003313404783327, 74932000000, 
-0.05425405175856875, 0.08738438663873115, 0.29984797170190386, 74937000000, 
-0.019830051783830096, 0.1785221687188982, 0.2999880379093982, 74942000000, 
-0.12414285032520533, -0.04280128869720603, 0.30023452823342456, 74947000000, 
-0.04487691584183507, 0.0902506225295624, 0.300185351102681, 74952000000, 
0.006744727183065258, 0.20883339454643798, 0.2999312038301969, 74957000000, 
-0.06509281121095767, 0.009872644933688578, 0.2999755864829737, 74962000000, 
-0.015783039521256717, 0.15237668182749975, 0.29987027281908374, 74967000000, 
-0.1059968559490046, -0.01268269536778317, 0.29961785086826853, 74973000000, 
-0.06243582377759145, 0.09599751266615981, 0.2998506384478055, 74978000000, 
0.033044928604544596, 0.22669322681132137, 0.29973915890795116, 74983000000, 
-0.08245946856966069, 0.003937393306011311, 0.299536048941941, 74988000000, 
-0.07399171733822671, 0.0877827331638826, 0.30003204035213416, 74993000000, 
-0.0022024546569399187, 0.19132813883221855, 0.29999644458242375, 74998000000, 
-0.11342456018282095, -0.028902573300016242, 0.29994819624256686, 75003000000, 
0.1547236417444685, 0.10715597864218074, 0.2999676162958824, 75008000000, 
0.006065627043917393, 0.16122182930670903, 0.29956606328023455, 75013000000, 
-0.11135112093617686, -0.029328525604002835, 0.2998859114908548, 75018000000, 
-0.014621599031285005, 0.171990386106213, 0.29998016702720115, 75023000000, 
-0.09152018341869121, -0.014035993417470909, 0.30046999544717984, 75028000000, 
-0.04097169451514879, 0.05145864338832693, 0.30055769604379173, 75033000000, 
-0.021641015039331704, 0.16047673857274267, 0.29971242100112044, 75038000000, 
-0.09631952547161324, -0.017493151344316782, 0.2997673210857295, 75043000000, 
-0.053383961691583194, 0.11630371824674385, 0.3000465371838646, 75048000000, 
-0.039285420523475834, 0.06910758217412123, 0.2998219611642986, 75053000000, 
-0.07530650480699341, 0.06765495416738428, 0.2998921575220884, 75058000000, 
-0.016418087505383865, 0.1529194714638973, 0.30010249808211037, 75063000000, 
-0.11351523124206384, -0.008441523706811874, 0.3001137143161502, 75068000000, 
0.09817188313680024, 0.07081088122201562, 0.30024655981609477, 75073000000, 
0.0009368971362978297, 0.18097868474903514, 0.29978457952834553, 75078000000, 
-0.10444431513973548, -0.02864526615703754, 0.2998641663790829, 75083000000, 
-0.03727471741263294, 0.19474685932602487, 0.29980032008460517, 75088000000, 
-0.0726884121317638, 0.009789384243131829, 0.2999943096682095, 75093000000, 
-0.06124693219632661, 0.09416134867597191, 0.30008040378854633, 75098000000, 
-0.0012529119266798455, 0.1681255797206616, 0.29985473371518623, 75103000000, 
-0.13595372960411803, -0.0537200848147579, 0.29978316181517095, 75108000000, 
-0.015444333980315179, 0.15059323010491266, 0.3001721775829245, 75115000000, 
-0.09412701312700976, -0.020614815612777258, 0.2995230616979375, 75120000000, 
-0.04389983791645856, 0.10410776116592875, 0.2999852334132375, 75125000000, 
-0.001017227144123522, 0.1701055117448615, 0.2996732517620096, 75130000000, 
-0.07388480413999486, 0.005334697683893792, 0.3004369299110399, 75135000000, 
-0.02878597303476856, 0.07452285679974707, 0.30006325799820527, 75140000000, 
0.23054381333374097, 0.21403466279499886, 0.30001619648828504, 75145000000, 
-0.1383049076717856, -0.015727370853404383, 0.3003424290357234, 75150000000, 
-0.04131052401721362, 0.12242515515315737, 0.30003565848854574, 75155000000, 
-0.023603181958326173, 0.17713215042784405, 0.29993895346515265, 75160000000, 
-0.09633092727623113, -0.0001154342164948188, 0.2998411292594272, 75166000000, 
-0.02179974110393875, 0.16130926978158458, 0.29977725000645206, 75171000000, 
-0.09011755753741313, -0.0029917706113661794, 0.2998941682611468, 75176000000, 
-0.04272300260656811, 0.1130982525985385, 0.3001637701679974, 75181000000, 
0.0033487597117769375, 0.17510776911433432, 0.3002376462711927, 75186000000, 
-0.09880958865809944, 0.024875051199899644, 0.2999343236512794, 75191000000, 
-0.02574569852606794, 0.08692073450686566, 0.30004785635907716, 75196000000, 
-0.027786811990831148, 0.1868128505034042, 0.2998909175017386, 75201000000, 
-0.17272339022596264, -0.1760835870268933, 0.29980036420623946, 75206000000, 
0.099456330362847, 0.09230279646006238, 0.30028748374223807, 75211000000, 
-0.062255122376334224, 0.09888662891210634, 0.29981750485034975, 75216000000, 
-0.08653671561177502, 0.07445266061404686, 0.3001116949320683, 75221000000, 
-0.03948772440981466, 0.1483523143653176, 0.3002950064668221, 75226000000, 
-0.09927511272043218, -0.021380529851351693, 0.2996086380935042, 75231000000, 
-0.06841545896456683, 0.09537191342994951, 0.3000345775339158, 75236000000, 
-0.0042431729142715265, 0.1994011195796727, 0.29973156631439946, 75241000000, 
-0.10689797439349705, -0.010106684500408024, 0.3001542642021565, 75246000000, 
-0.029950039739349895, 0.16024590672831568, 0.29992959885408266, 75251000000, 
-0.08967649167230297, -0.0256222547835495, 0.2999928023966742, 75256000000, 
-0.04901247777640362, 0.0760101556650786, 0.3003593926729643, 75261000000, 
0.008290527952130068, 0.18400215213556134, 0.29983640329197697, 75266000000, 
-0.10153894968361828, 0.017241194113412253, 0.3002655210191767, 75272000000, 
-0.012507246435971259, 0.18905641685369914, 0.3001074337287791, 75277000000, 
-0.07757347880492112, -0.01626129189938475, 0.3000502838164973, 75282000000, 
-0.07943013158279845, 0.08809530823027532, 0.30013011277379625, 75288000000, 
-0.012180617534330234, 0.1905874917513333, 0.2997374451543238, 75293000000, 
-0.09986797634990631, -0.033379393552856365, 0.30023556385895456, 75298000000, 
-0.039195354959278325, 0.06852193516092688, 0.3001892267808493, 75303000000, 
-0.06998447277044315, 0.09086046483848809, 0.2994714055704322, 75308000000, 
0.19353374354987876, 0.09716742076447268, 0.299755199858, 75313000000, 
-0.03858268196148526, 0.08746651530941486, 0.3001428360394092, 75318000000, 
-0.04628005529429434, 0.08460336155935325, 0.299630898494397, 75323000000, 
-0.07835504879310728, 0.07782264673301942, 0.30003647203336475, 75328000000, 
-0.05395023594777716, 0.11374007348566356, 0.3000075138927187, 75333000000, 
-0.010680230914547999, 0.09843622282896715, 0.3001004862978197, 75338000000, 
-0.0820348127317655, 0.0666472767202458, 0.3002291166151509, 75343000000, 
-0.05425954301530579, 0.13810619787378936, 0.29992402111702604, 75349000000, 
-0.14169698042258022, -0.03144756001883295, 0.30022671560679504, 75354000000, 
-0.03768059155571548, 0.08360285923312538, 0.3002579018753535, 75359000000, 
-0.06230601337104896, 0.12463281060680326, 0.2998990645741189, 75364000000, 
-0.07051598844548543, 0.08234075862183271, 0.30008282734345404, 75370000000, 
-0.013986087398161007, 0.1907286678874756, 0.30001217306487943, 75375000000, 
0.07398678665730829, 0.03145629527490862, 0.29969721135511834, 75383000000, 
-0.047302433180700106, 0.22203820250705125, 0.2999959582671548, 75388000000, 
-0.1177792455421499, -0.029474847942844662, 0.29995203138579557, 75393000000, 
-0.06450786537215082, 0.10828840681462037, 0.3001210548934251, 75398000000, 
-0.02746023189511547, 0.08915824804493294, 0.3001159153891452, 75403000000, 
-0.09987644866807098, 0.06329370623187332, 0.3004142261649078, 75408000000, 
-0.021675404418277394, 0.16698908367422724, 0.3001006270187307, 75413000000, 
-0.10801883830121276, -0.03883942344279258, 0.3000484738417624, 75418000000, 
-0.06064692188364998, 0.10915447664261602, 0.2997870875617532, 75423000000, 
-0.0050854891298704255, 0.1723911918376556, 0.2999560825322607, 75428000000, 
-0.10828472266947775, -0.02276976893227185, 0.30029038229680116, 75433000000, 
-0.001559795845948923, 0.18822345171094712, 0.30016184594016576, 75438000000, 
-0.09871107918620095, 0.008300675187597074, 0.2996446997946496, 75443000000, 
-0.07377235419126983, 0.07704402134316787, 0.2999768070093558, 75448000000, 
-0.01628382158968469, 0.174101116574308, 0.2998773080253295, 75453000000, 
-0.08776347450247571, -0.009061234522558805, 0.2998920952244172, 75458000000, 
-0.046339914292043115, 0.09853944690904459, 0.29992947116537294, 75463000000, 
-0.06299307001469245, 0.052147711906300055, 0.30004123034151087, 75468000000, 
-0.07564824058414668, 0.08091215789971254, 0.30004779438144485, 75473000000, 
-0.017715327894898464, 0.1885037212175293, 0.30006012363645757, 75478000000, 
0.11674124335002614, -0.0008274032153124979, 0.29999695378462204, 75483000000, 
-0.05328935357193502, 0.10852453846724817, 0.2998762376863243, 75488000000, 
-0.013698894190929034, 0.20796872647303777, 0.29994411383024905, 75493000000, 
-0.11148896290304545, -0.039455922792845224, 0.29982796973437786, 75498000000, 
-0.03928636166355045, 0.1708859420223077, 0.2999527720148196, 75503000000, 
-0.13173657414852258, -0.003996314513348703, 0.30015759771128253, 75508000000, 
-0.062157830165074444, 0.10529541698327796, 0.3000385450945152, 75513000000, 
0.021610374206841757, 0.1778573259382216, 0.2999271975699915, 75518000000, 
-0.11023906004990572, -0.027240301747298426, 0.30016718447676755, 75523000000, 
0.008673737247253156, 0.15245234815636924, 0.2999030083768244, 75529000000, 
-0.09649012848097563, -0.021164184773160382, 0.2998642813091249, 75534000000, 
-0.033501528306058306, 0.08482785621131125, 0.3002716266546341, 75539000000, 
0.01871189498048231, 0.19445940206828224, 0.2997937746717802, 75544000000, 
0.08406272417952008, -0.029169335210400753, 0.2994255073493401, 75549000000, 
-0.011822586765723488, 0.07229478866552605, 0.29999091084724133, 75554000000, 
0.05834697101356201, 0.2790330725434562, 0.30003121305074776, 75559000000, 
-0.12082974278178227, -0.01894831287651322, 0.29979041066884804, 75564000000, 
0.015098153733916351, 0.2109888261311055, 0.3001115655152513, 75569000000, 
-0.09803080554105767, -0.027140342147219717, 0.2997983531661003, 75574000000, 
-0.04280083194658657, 0.09965692652291686, 0.2998244548082005, 75579000000, 
-0.017712057880540352, 0.1927502564522551, 0.29966762947700565, 75584000000, 
-0.0954662943658206, -0.025127749340386994, 0.2999886243881935, 75589000000, 
-0.005718392637689661, 0.16767681768583254, 0.30018437176778806, 75594000000, 
-0.08252836858669131, 0.01543660585374143, 0.2998336610161886, 75599000000, 
-0.05126457369535068, 0.09069930880798895, 0.2999369401830102, 75604000000, 
-0.042883486396460405, 0.17562785912143977, 0.3000247276563719, 75609000000, 
-0.10817922221096946, -0.05566941963466078, 0.3000570433368686, 75614000000, 
0.14607026786424096, 0.06699580364171487, 0.2999100383644705, 75619000000, 
-0.05178935576134743, 0.10055825850168593, 0.29998298423500647, 75624000000, 
-0.08407825161434007, 0.05185305965802632, 0.3004130369889941, 75629000000, 
0.008432748921653693, 0.21401077958175374, 0.3002017454194649, 75634000000, 
-0.09114100487814102, -0.007043830195529679, 0.2998247259543766, 75639000000, 
-0.05859607744082891, 0.09992141522966133, 0.3000792844937849, 75644000000, 
0.005012031429291889, 0.19874770285746587, 0.2996771832171537, 75649000000, 
-0.12069412217356804, -0.003799915001158489, 0.29998095244414535, 75654000000, 
-0.06107003593526222, 0.09689653046901146, 0.3001509552667093, 75659000000, 
-0.05025199288069205, 0.09135729109450268, 0.29975228677857113, 75664000000, 
-0.05422135581862582, 0.11434733491891506, 0.3000113327382336, 75669000000, 
-0.005226664881006142, 0.1471628819262131, 0.29974624229908897, 75674000000, 
-0.10666614019109633, -0.03181110273195373, 0.29983943611945724, 75679000000, 
-0.040214530505826504, 0.07067392076796204, 0.3000234293517223, 75684000000, 
-0.02249381752778716, 0.10897004964392543, 0.29974930676758266, 75689000000, 
-0.04073185735129944, 0.08280298863547178, 0.30025910611358636, 75695000000, 
-0.010346414734757368, 0.19686906863792786, 0.29982647317809036, 75700000000, 
-0.10731657991017983, -0.050794074951262626, 0.2999228125812358, 75705000000, 
-0.05219455786606009, 0.11667495387775732, 0.30000395494921056, 75710000000, 
-0.032655563395084575, 0.11194604053078028, 0.29982335277349664, 75715000000, 
0.11277963913823852, 0.08778789296761857, 0.30022614238008477, 75720000000, 
-0.015629448959720824, 0.20044625066106025, 0.2999644924793279, 75725000000, 
-0.1046911197792418, -0.034301494478402625, 0.29994084666380305, 75730000000, 
-0.005667341638346885, 0.17074372939686652, 0.30011744351575564, 75737000000, 
-0.09548111066221797, -0.006391478154840204, 0.30015790648227136, 75742000000, 
-0.0563900382781199, 0.08053234349414172, 0.2999510196183692, 75747000000, 
0.019382615027979336, 0.19841903774547967, 0.29943381866248886, 75752000000, 
-0.13527559222665125, -0.005388712357481139, 0.3001355746867424, 75757000000, 
-0.0561144194545322, 0.107394548259098, 0.3002655652732901, 75762000000, 
-0.07776527211506494, 0.11212190861222357, 0.3003101171638207, 75767000000, 
-0.06979234009226465, 0.11592306801530164, 0.30020616687609497, 75772000000, 
0.023427772658312147, 0.21638381687533992, 0.2999961947133017, 75777000000, 
-0.09608674173210631, -0.0448798296671709, 0.29997948225152227, 75782000000, 
0.09036277794993593, 0.10601778116699884, 0.3001289578312122, 75787000000, 
0.022686105829696365, 0.22425086656584886, 0.29962549168117847, 75792000000, 
-0.13764966551652616, -0.03387464037271308, 0.2998748320807796, 75797000000, 
-0.048184332018262534, 0.12040712066807968, 0.3000640435721673, 75802000000, 
-0.04802264758575395, 0.11973874926178626, 0.3001307888211309, 75807000000, 
-0.06475164630188507, 0.08307380060548689, 0.3000264563246264, 75812000000, 
-0.03740438091759153, 0.1706235440894065, 0.2999591922670185, 75817000000, 
-0.12646088523224266, -0.04871336575874093, 0.2997018346209638, 75822000000, 
-0.05094213310123638, 0.10682213578841553, 0.2997929949229521, 75827000000, 
-0.06465727825532612, 0.11398201634469457, 0.3000202526309167, 75832000000, 
-0.05738868210587119, 0.07384856826950767, 0.3001158714784093, 75837000000, 
-0.0045788201530721565, 0.17616808387374525, 0.29984016948103076, 75842000000, 
-0.09100559633697916, -0.02979489226970807, 0.29971016176621, 75847000000, 
-0.03327392999773746, 0.1172694746118694, 0.2998700843772744, 75853000000, 
0.017252456611695718, 0.21340461569571947, 0.29976735674100735, 75858000000, 
-0.10795546164013209, -0.0027465648044107767, 0.30018725926350065, 75863000000, 
-0.02017913874831291, 0.110829700604604, 0.3003944633490193, 75868000000, 
-0.07498009695196425, 0.08325318863121148, 0.30007853979103116, 75873000000, 
-0.06451872590968043, 0.061799558815323924, 0.3002869699056715, 75878000000, 
-0.017110733929313664, 0.20555315877838826, 0.2999935111990072, 75883000000, 
-0.11220558720993942, -0.04230961700283396, 0.2999406743591121, 75888000000, 
0.1064119766856241, 0.07901025211818413, 0.30027608655178595, 75893000000, 
0.0037536777372389665, 0.19769144627637308, 0.3000599661394392, 75898000000, 
-0.06794807413732022, 0.026111410817958973, 0.299875699336226, 75903000000, 
-0.04602497317192922, 0.07712335337500548, 0.30006627983975137, 75908000000, 
0.01022843901834476, 0.17430279463931997, 0.2997699644092471, 75913000000, 
-0.0887834071414056, -0.00032758066392810006, 0.3002917565356882, 75919000000, 
-0.004954916550538108, 0.1889673957253728, 0.29999203800947083, 75924000000, 
-0.08933798708723753, 0.016677947393877922, 0.300083280489423, 75929000000, 
-0.04262377093582104, 0.0915155599609885, 0.2999329226345859, 75934000000, 
-0.0279796803933295, 0.18758866376308353, 0.2999993072838034, 75939000000, 
-0.09704195022035227, 0.019895555649912022, 0.30017337700700947, 75946000000, 
-0.044224475962703264, 0.08540712149050608, 0.29990816022052186, 75951000000, 
-0.009865142180374448, 0.1785763584615108, 0.29998448542817996, 75956000000, 
0.07327207549965378, -0.007076493895016299, 0.2996276719927835, 75961000000, 
-0.07127557082467466, 0.12882275055258502, 0.3001258853488212, 75966000000, 
-0.026001120070102534, 0.09116666699045563, 0.3001873039165529, 75971000000, 
-0.08875602267465926, 0.09242655719417249, 0.300268421180409, 75976000000, 
-0.03181475428135555, 0.18371856936550326, 0.2997434171147868, 75982000000, 
-0.08679576213514176, -0.029453513427809233, 0.3000472721848403, 75987000000, 
-0.0715943015118983, 0.09070018913738451, 0.3001674943012848, 75992000000, 
-0.050410851407307194, 0.09276119996660094, 0.29991652735293106, 75997000000, 
-0.0805177210662811, 0.09088375865725633, 0.3003273647284086, 76002000000, 
-0.027769068680314993, 0.19778447398992044, 0.29987764353495605, 76007000000, 
-0.0963066692795809, -0.0028139283919633162, 0.29997946234090045, 76012000000, 
-0.07635187546149384, 0.08741965264191293, 0.3001864248874824, 76017000000, 
-0.029107413887463157, 0.1610881625320441, 0.3001327590559432, 76022000000, 
-0.09973684615082785, 0.016881283392343537, 0.2997204572634443, 76028000000, 
-0.018910926694901013, 0.17541384076104, 0.3002725298875444, 76034000000, 
-0.12618804122010854, -0.040239427223241836, 0.3003887348377093, 76039000000, 
-0.05960931768340197, 0.10055709448845596, 0.29980247820398087, 76044000000, 
-0.027466740009405414, 0.08065164905593182, 0.29992288573479803, 76049000000, 
-0.07528495165520988, 0.08543757148230921, 0.2999061452194913, 76054000000, 
-0.013018794939940235, 0.215978604378389, 0.3000386420386774, 76059000000, 
0.040724348904889324, 0.039864479719965165, 0.30000141941346714, 76064000000, 
-0.06745183435309182, 0.10948175656871177, 0.3001599113360681, 76071000000, 
-0.05522436177990769, 0.06312264713845092, 0.2997856771912126, 76076000000, 
-0.060019698255431464, 0.12415395251196343, 0.30001492646956934, 76081000000, 
0.007842306593529955, 0.21276303892528156, 0.29990626277091154, 76086000000, 
-0.12066234551349751, 0.003879843699636092, 0.3000474501940974, 76091000000, 
-0.05475490616139355, 0.10870263139207724, 0.2999047919068373, 76096000000, 
-0.03776576897055151, 0.07515434648248319, 0.2998457282049412, 76101000000, 
-0.06313046427609884, 0.06298360745311142, 0.3001943801741672, 76106000000, 
-0.004236849654937815, 0.21406921628513903, 0.3001816805535883, 76111000000, 
-0.07411481985886222, -0.012708463934074668, 0.30047600158480847, 76116000000, 
-0.024655156905157603, 0.07474008566562304, 0.2998803546429147, 76121000000, 
0.02037382778431403, 0.2270552286973042, 0.29987322352345486, 76126000000, 
-0.1098593425080432, -0.018551566200507085, 0.30000181897250094, 76132000000, 
-0.026595895820524934, 0.20200286331656073, 0.30023703234553295, 76137000000, 
-0.10896456746522211, 0.012304483541473843, 0.29962670991391976, 76142000000, 
-0.07740104499638284, 0.06944421233055023, 0.3000266878337999, 76147000000, 
0.007429328589395916, 0.1960097171648162, 0.2999733188701511, 76152000000, 
-0.10138319174467851, -0.03171312386669653, 0.2998579768252667, 76157000000, 
0.15661050495156262, 0.1638791836665406, 0.2999391505747666, 76163000000, 
-0.11222456196291067, -0.021880768791721752, 0.29987439943172156, 76168000000, 
-0.0902145942715323, 0.09013887087744699, 0.29990207007840736, 76173000000, 
0.013805485217933757, 0.17462587803422075, 0.29959651958946526, 76178000000, 
-0.08499412428562182, -0.006174469736695099, 0.30003972614004165, 76183000000, 
0.01670546371620047, 0.1749261457238247, 0.3000614910220368, 76188000000, 
-0.06979278227162593, 0.02237957409528711, 0.29978360884560473, 76193000000, 
-0.028645220000752647, 0.10279339109432899, 0.3001502812972245, 76198000000, 
0.007422844110330716, 0.23046424677405414, 0.2996566420717798, 76203000000, 
-0.09283607391761797, 0.01489535899804647, 0.30003485907262967, 76208000000, 
-0.011558340395471947, 0.09655202419803971, 0.30034202284774975, 76213000000, 
-0.06398798023889399, 0.0871332972679075, 0.3003672858082896, 76218000000, 
-0.043262978444847014, 0.07649306478162085, 0.30018263276960855, 76223000000, 
0.012151189951844159, 0.20207218245296174, 0.3001788918414334, 76228000000, 
0.10344477721244827, -0.007179209593427861, 0.30029923370123424, 76233000000, 
-0.04972618027435402, 0.07729512287043494, 0.30001534384182466, 76238000000, 
0.009266083441700417, 0.1883894971525308, 0.29989191439841795, 76243000000, 
-0.12246855938898861, 0.0004172041786605525, 0.29994530103341444, 76248000000, 
-0.002962769855642826, 0.20464776424520625, 0.30008131155624224, 76253000000, 
-0.11484335469099252, 0.0019871213751611015, 0.30007916927990985, 76258000000, 
-0.050907578030685054, 0.07210858175396274, 0.3002231587859678, 76263000000, 
-0.01592892386119031, 0.22074519427650985, 0.3000016339091753, 76268000000, 
-0.11615980424197746, -0.01304550602236671, 0.299982224278846, 76273000000, 
-0.05350202939601195, 0.12437143570529981, 0.30009447137205864, 76278000000, 
-0.020922014820476818, 0.08164992582681344, 0.29995535909584486, 76283000000, 
-0.04809772315966609, 0.07624322794144388, 0.299747867426516, 76288000000, 
-0.013396900071227725, 0.19270745812727488, 0.2999290979999438, 76293000000, 
0.08852619737103197, -0.03056372203119207, 0.29963360236859143, 76298000000, 
-0.013393402703404722, 0.11227018774291708, 0.30008935456535485, 76304000000, 
0.0607043647035827, 0.26769925469455136, 0.29991722484739197, 76309000000, 
-0.09393089400823523, 0.007590085193697043, 0.3001504937254566, 76314000000, 
0.006210172638551474, 0.22110099007778944, 0.2998759858957618, 76319000000, 
-0.10918271679992476, -0.037869101773054685, 0.29979276499187235, 76324000000, 
-0.01281027011489673, 0.08876528720705805, 0.30015643549169396, 76329000000, 
-3.086537554289424e-05, 0.20780253858761255, 0.30005458837625776, 76334000000, 
-0.10281272360528125, -0.04148714724973837, 0.29997895224774934, 76339000000, 
-0.013953541480131827, 0.184102005127681, 0.29997505870195296, 76344000000, 
-0.08660846881471528, 0.007083455516717676, 0.3001223352406203, 76349000000, 
-0.06111722885003409, 0.09008780496427854, 0.3004252463402641, 76354000000, 
0.024737440518152846, 0.18861646519725395, 0.29968767237015675, 76359000000, 
-0.12346566106078927, -0.02668944481533549, 0.2998771844953321, 76364000000, 
-0.0670104893652034, 0.12079579715941569, 0.3001769386749245, 76369000000, 
-0.07447293615536041, 0.11770560323164304, 0.29956416329392727, 76374000000, 
-0.04937984698042003, 0.07086386324846787, 0.30011170855937236, 76379000000, 
-0.018703367886718187, 0.21205531671613415, 0.29973100943509107, 76384000000, 
-0.10003738617032959, -0.02778946190964459, 0.2997298322616677, 76389000000, 
-0.05724426686292652, 0.07884517646510289, 0.3007060258179575, 76394000000, 
0.15415504490276372, 0.17694003812735845, 0.29990952043383784, 76399000000, 
-0.10601875448084908, -0.01118660458511822, 0.29994506294684053, 76404000000, 
0.007130755381807753, 0.22940470851434844, 0.3000483271502993, 76409000000, 
-0.10070899123320445, 0.021528620047266397, 0.2999929259555409, 76414000000, 
-0.061159160720945537, 0.07974538388059475, 0.2999652493888667, 76419000000, 
-0.0008939064269692775, 0.16083655942464026, 0.29981004488184065, 76424000000, 
-0.12146292197463923, -0.026009868774643036, 0.3000634509274178, 76429000000, 
-0.025907683747164525, 0.18829722303116114, 0.30024804354910506, 76434000000, 
-0.11077506812255832, -0.0106574322629806, 0.30007350859672793, 76439000000, 
-0.0520573542044591, 0.0659785273935772, 0.2998081246082706, 76445000000, 
-0.009025577485911093, 0.16151296875084128, 0.29977326540282784, 76450000000, 
-0.09209646679039483, -0.027949894615174265, 0.3000445507576889, 76455000000, 
-0.05177282700917263, 0.08051624109702145, 0.3002007041305347, 76460000000, 
-0.05358366223779392, 0.11643067470852271, 0.2996624710124781, 76465000000, 
0.11953105300214285, 0.08450973174023974, 0.2998214868199766, 76470000000, 
0.0352333984409561, 0.22075326027885067, 0.3001668411809152, 76475000000, 
-0.10708300099132043, -0.02618702983390902, 0.29997636166706254, 76480000000, 
-0.03606330137400063, 0.08489487855234706, 0.29974887707776793, 76485000000, 
-0.032038076369059816, 0.17575057017219162, 0.2998645828641571, 76490000000, 
-0.08569689429297242, -0.033541957738300134, 0.2997940863190861, 76495000000, 
-0.08064318036799835, 0.08564466557498086, 0.30013700383779174, 76501000000, 
-0.006231781358007775, 0.20361547863426657, 0.3001680508686521, 76506000000, 
-0.12584080451333537, -0.011665696440862702, 0.2999220467496208, 76511000000, 
-0.061076261611354, 0.10355764221556737, 0.2997653836243216, 76516000000, 
-0.039086973905916214, 0.2286901732672673, 0.30014374282163975, 76521000000, 
-0.07143638849078315, 0.03496685163017126, 0.30006758943304906, 76530000000, 
-0.04452190616335747, 0.09613983757218854, 0.2995914730307715, 76536000000, 
-0.05932245058505894, 0.07632533001855046, 0.30014968016880966, 76542000000, 
-0.024779658701904593, 0.22198623820535918, 0.29990435192053494, 76548000000, 
-0.10319574548535734, 0.035021011311750234, 0.29978748743157124, 76555000000, 
-0.04828727147201112, 0.10679231915862625, 0.2999511825039146, 76560000000, 
0.0037758951117330686, 0.21274683052124352, 0.29987385068087635, 76565000000, 
0.09509331008318465, 0.046674955134107354, 0.3001600034535511, 76571000000, 
0.021114780633138888, 0.19568745381164904, 0.30036464908785143, 76576000000, 
-0.11772700081396312, -0.0074463492291783236, 0.3003296504377726, 76581000000, 
-0.05795425574289709, 0.10071652187435388, 0.300148017761534, 76586000000, 
-0.0226255810609255, 0.1873235978759379, 0.30021854704058515, 76591000000, 
-0.09800911620665247, -0.007809420295787182, 0.29985262317060035, 76596000000, 
-0.01646483361845632, 0.21570027636586794, 0.3001679709974932, 76601000000, 
-0.10383413029919678, 0.004982390312194112, 0.3001534022404325, 76606000000, 
-0.06411863296655344, 0.07958550946791451, 0.29971578586772607, 76611000000, 
0.006984445843346735, 0.20093988566168486, 0.2998838110630281, 76617000000, 
-0.10097602168902796, 0.01837308584117979, 0.2997292414513011, 76622000000, 
-0.014971593434762497, 0.1681678544590536, 0.3001213960644686, 76627000000, 
-0.07262359670590111, 0.013895031610208119, 0.29982248218721536, 76632000000, 
-0.05432330526678353, 0.09351786893028802, 0.30039562096700867, 76637000000, 
-0.021358767029638705, 0.21719148033066712, 0.3000938651359455, 76642000000, 
-0.08130692918722814, -0.02537294545491461, 0.2999608380117014, 76647000000, 
-0.06586361478739818, 0.08418539722073848, 0.3000775626999639, 76652000000, 
-0.03222267963752201, 0.09578165016130694, 0.2999496095152461, 76657000000, 
-0.06645426497623125, 0.10160462132084888, 0.3003173718761163, 76662000000, 
-0.009365895284227842, 0.14114931811115958, 0.29967614079306265, 76667000000, 
0.12612680571022528, -0.03111908691406905, 0.29972536536736943, 76672000000, 
-0.034139169986477244, 0.09369033476817422, 0.29969223933221556, 76677000000, 
-0.0060044887098635764, 0.17819326871263708, 0.3000847466515694, 76682000000, 
-0.11203857774895493, -0.02218457398740008, 0.29969644226452447, 76687000000, 
-0.00191349394969542, 0.16458409196946852, 0.29996944705543016, 76692000000, 
-0.09742213361082364, -0.05862215920540732, 0.2998952875675197, 76697000000, 
-0.04398762072341067, 0.11200594066247864, 0.30015605455673605, 76703000000, 
-0.028095851207425394, 0.2042327309061293, 0.29970614119947536, 76708000000, 
-0.11379732198574218, 0.012778989029366819, 0.2996825181096859, 76713000000, 
-0.04645173405189841, 0.10304472095219777, 0.30027659321151867, 76718000000, 
-0.07240385605042589, 0.07830462649917586, 0.3000786209155332, 76723000000, 
-0.05350904918618568, 0.08739012652817618, 0.30024709657800097, 76728000000, 
0.04269749274535591, 0.22935450075983216, 0.3003978466818357, 76733000000, 
-0.08588018586089459, 0.022099485320170004, 0.2998187002968768, 76738000000, 
0.13218482992748104, 0.1977386726682103, 0.29980066517290166, 76744000000, 
-0.08870159044299245, -0.005257751429103173, 0.2997144854375099, 76748000000, 
-0.06931459217585599, 0.10623924922463582, 0.3001317810596062, 76753000000, 
-0.005159060643884255, 0.1818647943708954, 0.300159630388036, 76758000000, 
-0.0671985165004764, 0.00955991111593157, 0.3002411159123954, 76763000000, 
-0.03890986233257866, 0.10952245346995618, 0.30035533952192395, 76768000000, 
0.027204452825585562, 0.29419089203793053, 0.29981726263219666, 76773000000, 
-0.07703074753270622, 0.049266251579875124, 0.2996490006096594, 76778000000, 
-0.006431903710461149, 0.1959018040159292, 0.30031500223650925, 76783000000, 
-0.10358543170650539, -0.00041582468933348653, 0.29991850241762014, 76788000000, 
-0.0494069289443695, 0.10479737949075124, 0.29991361375393605, 76793000000, 
-0.029865681027517216, 0.19519251807547783, 0.29995649654452866, 76798000000, 
-0.09832414855751528, -0.0037755809689658942, 0.29968714809370467, 76803000000, 
-0.059162265453826565, 0.09870868353177371, 0.30014515522190344, 76808000000, 
-0.007263504979118865, 0.1891299179976413, 0.2999181948870388, 76813000000, 
-0.09356061909767732, -0.02101465192631919, 0.29986480734196375, 76818000000, 
-0.03198338916802443, 0.11537561557233963, 0.29988623452733165, 76824000000, 
-0.01816456973431215, 0.22961253121573286, 0.29976556363856605, 76829000000, 
-0.09226238372335456, -0.01856098279694024, 0.3001071926843107, 76834000000, 
0.004505640495071947, 0.10096951351145869, 0.3001371016266332, 76845000000, 
-0.08358221970365431, 0.06041586044847817, 0.29976655407178926, 76850000000, 
-0.038352789721009695, 0.07399129527493838, 0.3000398554739298, 76855000000, 
-0.014047644076781529, 0.1784223174477598, 0.2997020033372438, 76860000000, 
-0.09903263466280457, -0.04985840582326089, 0.2998301724436291, 76865000000, 
-0.023402683387402482, 0.10473587170488763, 0.3000523288539105, 76870000000, 
-0.014414111339733575, 0.2524269703298999, 0.30022897803609905, 76875000000, 
-0.0981254390148465, -0.015454239907120082, 0.30030614858953714, 76880000000, 
-0.013052565371637874, 0.18200948046241128, 0.29985837125847675, 76885000000, 
-0.11040005061066621, -0.017508126886004845, 0.29983349411132937, 76890000000, 
-0.06423932119507822, 0.10180149282594798, 0.2998398617077287, 76895000000, 
-0.05526317398954235, 0.11026576738588727, 0.299991054981804, 76901000000, 
-0.05047236983376444, 0.09733646932533548, 0.300074413539838, 76906000000, 
0.20632038702599248, 0.215733874768667, 0.30028660897839704, 76911000000, 
-0.12251540810313101, -0.01278663836333774, 0.29996690727281766, 76916000000, 
-0.004357857938901914, 0.12509025025279133, 0.30008913466314163, 76922000000, 
-0.042849509567579436, 0.09398247703491075, 0.29971189916923713, 76927000000, 
-0.057331003527983086, 0.05808960862396324, 0.2999633015595267, 76932000000, 
-0.01173816393312787, 0.1979512934644758, 0.3000722981447161, 76937000000, 
-0.1370799464881036, -0.021211030386607592, 0.29970057114435417, 76942000000, 
-0.032399592894185585, 0.11967930716874482, 0.29971843971959455, 76947000000, 
-0.0049709531542134165, 0.20119207205056544, 0.29989081552424496, 76952000000, 
-0.11017605671165384, -0.011117071909005755, 0.30016965685552766, 76957000000, 
-0.05985178616299842, 0.1570195958370793, 0.30040331668174153, 76962000000, 
-0.08839641248215856, -0.013741575472881223, 0.30000438789630673, 76967000000, 
-0.06256834587767855, 0.08446561507816017, 0.3002625781218443, 76972000000, 
-0.012480329464670951, 0.1980358198053988, 0.29948837032615283, 76977000000, 
-0.10521621424381142, 0.0047686104016174645, 0.3003529441176526, 76983000000, 
-0.024948222754480127, 0.2109437857396487, 0.3001911237391306, 76988000000, 
-0.10886930345719155, 0.004363739947568757, 0.29964205328741417, 76994000000, 
-0.06469156352072312, 0.1220728381561901, 0.29998906003576475, 76999000000, 
-0.05419268035310798, 0.09801188500342281, 0.2999029606841501, 77005000000, 
-0.08078873151626705, 0.10365834480634677, 0.3005246030432446, 77010000000, 
0.21891911470073622, 0.19406783343363168, 0.2995463825246586, 77015000000, 
-0.12415913748707708, -0.05180438166886543, 0.29990895077109236, 77020000000, 
-0.066417024126176, 0.09758959099274236, 0.29975447513417663, 77025000000, 
-0.010905836231253477, 0.23555888563860017, 0.29950631045725745, 77030000000, 
-0.12238311106357468, -0.0467000174028958, 0.30014318649061184, 77035000000, 
0.010869312351491155, 0.16905358730286102, 0.30024475229269887, 77040000000, 
-0.08642276535810735, 0.05622434462293184, 0.3007099853986609, 77049000000, 
-0.05331018916650599, 0.09885795286360158, 0.30008686664093276, 77054000000, 
-0.07452166946879125, 0.09373030545846824, 0.299916657936421, 77059000000, 
-0.05932853116291583, 0.10535906595573014, 0.2999768341353548, 77064000000, 
-0.04121347643467804, 0.20685802571853923, 0.29933019124597565, 77069000000, 
-0.09127718592400709, -0.015008454211471739, 0.3000261279962363, 77074000000, 
0.1491116941197849, 0.15576978002517294, 0.2998779767762906, 77080000000, 
-0.09715852262202297, -0.031526920863408955, 0.2998781492700804, 77085000000, 
-0.06611384485092738, 0.0982319822498009, 0.3002379402605485, 77090000000, 
0.06604720304220282, 0.3335670656208506, 0.3000332880331802, 77095000000, 
-0.07475772476666068, 0.0404206218273757, 0.30008791254039746, 77100000000, 
-0.020195335660337217, 0.21327906459459425, 0.3000365046997489, 77105000000, 
-0.0507809908870843, 0.09928354465013023, 0.29990696360285446, 77110000000, 
-0.10494008828321139, 0.05300557517058203, 0.2998423602064937, 77115000000, 
-0.0008074318677004245, 0.21818807449727257, 0.29987380361141563, 77120000000, 
-0.07962939567678112, -0.019596361311039038, 0.2999828665787641, 77125000000, 
-0.06930024821382795, 0.09466856319996142, 0.30037558264011555, 77130000000, 
0.02486505582754948, 0.21676025368657856, 0.2999088468136207, 77135000000, 
-0.051531179878716735, 0.023065913805415846, 0.299944450328244, 77140000000, 
